Wavelength (nm),Intensity Source #22,,Untitled.sp,,,Source #22,
379.792,1.652,,2018-06-12 12:07:41,,Integration Time,125 ms,
380.000,1.653,,Analyze Light,,Number of Scans to Average,25,
380.209,1.654,,,,Smoothing,1,
380.418,1.666
380.627,1.685
380.837,1.702
381.048,1.707
381.259,1.704
381.471,1.701
381.683,1.702
381.896,1.707
382.110,1.711
382.324,1.720
382.538,1.731
382.753,1.741
382.969,1.736
383.185,1.729
383.402,1.725
383.619,1.734
383.837,1.748
384.055,1.766
384.274,1.786
384.493,1.800
384.712,1.806
384.932,1.809
385.153,1.812
385.374,1.818
385.596,1.827
385.818,1.837
386.040,1.846
386.263,1.855
386.487,1.862
386.710,1.865
386.935,1.860
387.159,1.856
387.385,1.850
387.610,1.849
387.836,1.853
388.063,1.862
388.289,1.873
388.517,1.880
388.744,1.885
388.972,1.899
389.201,1.908
389.430,1.916
389.659,1.920
389.889,1.930
390.119,1.937
390.349,1.944
390.580,1.952
390.811,1.958
391.042,1.960
391.274,1.962
391.507,1.963
391.739,1.965
391.972,1.963
392.205,1.968
392.439,1.977
392.673,1.990
392.907,2.001
393.142,2.013
393.377,2.024
393.612,2.035
393.848,2.040
394.084,2.045
394.320,2.046
394.557,2.055
394.794,2.061
395.031,2.074
395.269,2.087
395.507,2.100
395.745,2.103
395.983,2.104
396.222,2.105
396.461,2.117
396.700,2.131
396.940,2.148
397.180,2.156
397.420,2.157
397.660,2.151
397.901,2.146
398.142,2.151
398.383,2.153
398.625,2.154
398.866,2.158
399.108,2.175
399.351,2.202
399.593,2.212
399.836,2.212
400.079,2.199
400.322,2.193
400.566,2.188
400.809,2.190
401.053,2.194
401.298,2.200
401.542,2.207
401.787,2.218
402.031,2.230
402.277,2.245
402.522,2.253
402.767,2.259
403.013,2.256
403.259,2.260
403.505,2.265
403.752,2.271
403.998,2.274
404.245,2.286
404.492,2.300
404.739,2.310
404.986,2.311
405.234,2.316
405.482,2.320
405.730,2.323
405.978,2.325
406.226,2.327
406.475,2.323
406.723,2.319
406.972,2.322
407.221,2.334
407.470,2.340
407.720,2.347
407.969,2.348
408.219,2.357
408.469,2.365
408.719,2.380
408.969,2.387
409.219,2.398
409.470,2.404
409.720,2.413
409.971,2.419
410.222,2.429
410.473,2.432
410.724,2.433
410.976,2.434
411.227,2.442
411.479,2.449
411.731,2.453
411.983,2.448
412.235,2.450
412.487,2.449
412.740,2.461
412.992,2.467
413.245,2.476
413.497,2.477
413.750,2.480
414.003,2.475
414.257,2.471
414.510,2.466
414.763,2.471
415.017,2.477
415.270,2.485
415.524,2.483
415.778,2.479
416.032,2.474
416.286,2.485
416.540,2.496
416.794,2.511
417.049,2.511
417.303,2.511
417.558,2.505
417.812,2.503
418.067,2.504
418.322,2.507
418.577,2.508
418.832,2.505
419.088,2.499
419.343,2.500
419.598,2.496
419.854,2.498
420.109,2.498
420.365,2.514
420.621,2.523
420.876,2.535
421.132,2.540
421.388,2.546
421.645,2.543
421.901,2.540
422.157,2.540
422.413,2.550
422.670,2.559
422.926,2.573
423.183,2.582
423.439,2.601
423.696,2.619
423.953,2.646
424.210,2.671
424.467,2.692
424.724,2.704
424.981,2.713
425.238,2.729
425.495,2.758
425.753,2.789
426.010,2.822
426.267,2.849
426.525,2.886
426.782,2.925
427.040,2.968
427.298,3.013
427.555,3.077
427.813,3.146
428.071,3.221
428.329,3.290
428.587,3.365
428.845,3.436
429.103,3.509
429.361,3.581
429.619,3.664
429.878,3.750
430.136,3.847
430.394,3.945
430.653,4.064
430.911,4.190
431.170,4.324
431.428,4.450
431.687,4.588
431.946,4.728
432.204,4.883
432.463,5.044
432.722,5.224
432.981,5.403
433.240,5.593
433.499,5.784
433.758,5.998
434.017,6.213
434.276,6.443
434.535,6.674
434.794,6.918
435.053,7.171
435.312,7.442
435.572,7.723
435.831,8.019
436.090,8.318
436.350,8.637
436.609,8.973
436.869,9.331
437.128,9.690
437.388,10.063
437.647,10.444
437.907,10.857
438.166,11.274
438.426,11.709
438.686,12.147
438.946,12.612
439.205,13.094
439.465,13.608
439.725,14.146
439.985,14.710
440.245,15.284
440.505,15.878
440.765,16.485
441.025,17.106
441.285,17.730
441.545,18.389
441.805,19.081
442.065,19.822
442.325,20.585
442.585,21.391
442.846,22.215
443.106,23.097
443.366,24.012
443.626,24.977
443.887,25.985
444.147,27.038
444.407,28.139
444.668,29.295
444.928,30.511
445.189,31.791
445.449,33.112
445.710,34.489
445.970,35.924
446.231,37.450
446.491,39.053
446.752,40.727
447.012,42.445
447.273,44.222
447.534,46.045
447.794,47.930
448.055,49.880
448.316,51.911
448.577,54.022
448.837,56.197
449.098,58.417
449.359,60.664
449.620,62.931
449.881,65.218
450.142,67.512
450.403,69.823
450.664,72.146
450.924,74.483
451.185,76.802
451.446,79.068
451.707,81.215
451.969,83.161
452.230,84.827
452.491,86.190
452.752,87.309
453.013,88.258
453.274,89.082
453.535,89.790
453.796,90.400
454.058,90.912
454.319,91.326
454.580,91.634
454.841,91.853
455.103,91.994
455.364,92.072
455.625,92.100
455.887,92.076
456.148,92.000
456.409,91.861
456.671,91.656
456.932,91.384
457.194,91.036
457.455,90.613
457.716,90.108
457.978,89.514
458.239,88.830
458.501,88.041
458.763,87.139
459.024,86.062
459.286,84.749
459.547,83.164
459.809,81.319
460.071,79.323
460.332,77.266
460.594,75.220
460.856,73.207
461.117,71.223
461.379,69.293
461.641,67.394
461.903,65.538
462.164,63.716
462.426,61.954
462.688,60.262
462.950,58.643
463.212,57.090
463.474,55.590
463.736,54.168
463.998,52.837
464.260,51.608
464.522,50.447
464.784,49.353
465.046,48.331
465.308,47.393
465.570,46.512
465.832,45.668
466.094,44.865
466.356,44.090
466.618,43.344
466.880,42.594
467.142,41.869
467.405,41.156
467.667,40.482
467.929,39.820
468.191,39.165
468.454,38.498
468.716,37.806
468.978,37.107
469.241,36.393
469.503,35.697
469.765,35.008
470.028,34.343
470.290,33.675
470.552,33.002
470.815,32.310
471.077,31.600
471.340,30.888
471.602,30.180
471.865,29.488
472.128,28.782
472.390,28.082
472.653,27.378
472.915,26.686
473.178,25.999
473.441,25.304
473.703,24.602
473.966,23.884
474.229,23.177
474.492,22.486
474.755,21.812
475.017,21.171
475.280,20.544
475.543,19.948
475.806,19.340
476.069,18.745
476.332,18.162
476.595,17.606
476.858,17.066
477.121,16.542
477.384,16.034
477.647,15.558
477.910,15.099
478.173,14.660
478.436,14.230
478.699,13.833
478.962,13.460
479.226,13.116
479.489,12.761
479.752,12.417
480.015,12.078
480.279,11.774
480.542,11.472
480.805,11.175
481.069,10.874
481.332,10.598
481.595,10.341
481.859,10.116
482.122,9.891
482.386,9.669
482.649,9.434
482.913,9.209
483.177,8.981
483.440,8.768
483.704,8.562
483.967,8.377
484.231,8.192
484.495,8.013
484.759,7.825
485.022,7.639
485.286,7.446
485.550,7.258
485.814,7.059
486.078,6.872
486.342,6.690
486.606,6.533
486.869,6.368
487.133,6.214
487.397,6.056
487.662,5.907
487.926,5.747
488.190,5.599
488.454,5.441
488.718,5.295
488.982,5.135
489.246,4.990
489.511,4.839
489.775,4.697
490.039,4.554
490.304,4.420
490.568,4.282
490.832,4.158
491.097,4.038
491.361,3.930
491.626,3.816
491.890,3.709
492.155,3.603
492.419,3.513
492.684,3.419
492.949,3.329
493.213,3.239
493.478,3.159
493.743,3.073
494.008,2.978
494.272,2.883
494.537,2.814
494.802,2.758
495.067,2.713
495.332,2.659
495.597,2.608
495.862,2.550
496.127,2.500
496.392,2.450
496.657,2.405
496.922,2.358
497.187,2.318
497.452,2.282
497.718,2.258
497.983,2.230
498.248,2.197
498.513,2.158
498.779,2.133
499.044,2.112
499.310,2.085
499.575,2.047
499.841,2.014
500.106,1.989
500.372,1.965
500.637,1.941
500.903,1.928
501.168,1.913
501.434,1.894
501.700,1.863
501.966,1.837
502.231,1.813
502.497,1.794
502.763,1.772
503.029,1.752
503.295,1.735
503.561,1.720
503.827,1.708
504.093,1.699
504.359,1.688
504.625,1.675
504.891,1.660
505.157,1.651
505.423,1.635
505.690,1.618
505.956,1.599
506.222,1.589
506.489,1.590
506.755,1.593
507.021,1.596
507.288,1.589
507.554,1.578
507.821,1.565
508.087,1.552
508.354,1.549
508.621,1.540
508.887,1.523
509.154,1.501
509.421,1.484
509.687,1.473
509.954,1.464
510.221,1.455
510.488,1.455
510.755,1.454
511.022,1.454
511.289,1.443
511.556,1.433
511.823,1.426
512.090,1.430
512.357,1.429
512.624,1.425
512.891,1.418
513.159,1.414
513.426,1.411
513.693,1.407
513.960,1.402
514.228,1.394
514.495,1.387
514.763,1.381
515.030,1.376
515.298,1.371
515.565,1.368
515.833,1.367
516.100,1.367
516.368,1.368
516.636,1.370
516.904,1.370
517.171,1.363
517.439,1.355
517.707,1.347
517.975,1.344
518.243,1.347
518.511,1.344
518.779,1.334
519.047,1.328
519.315,1.326
519.583,1.325
519.851,1.314
520.119,1.305
520.387,1.299
520.656,1.298
520.924,1.298
521.192,1.305
521.461,1.312
521.729,1.315
521.997,1.314
522.266,1.313
522.534,1.311
522.803,1.310
523.071,1.310
523.340,1.305
523.609,1.294
523.877,1.285
524.146,1.280
524.415,1.281
524.684,1.282
524.952,1.280
525.221,1.277
525.490,1.279
525.759,1.286
526.028,1.289
526.297,1.281
526.566,1.271
526.835,1.266
527.104,1.269
527.373,1.271
527.642,1.271
527.912,1.264
528.181,1.257
528.450,1.254
528.719,1.256
528.989,1.266
529.258,1.277
529.528,1.279
529.797,1.271
530.067,1.264
530.336,1.260
530.606,1.259
530.875,1.255
531.145,1.252
531.414,1.254
531.684,1.259
531.954,1.261
532.224,1.256
532.493,1.245
532.763,1.236
533.033,1.233
533.303,1.238
533.573,1.246
533.843,1.246
534.113,1.240
534.383,1.231
534.653,1.233
534.923,1.237
535.193,1.245
535.463,1.250
535.733,1.255
536.004,1.257
536.274,1.258
536.544,1.253
536.814,1.245
537.085,1.239
537.355,1.246
537.626,1.258
537.896,1.267
538.166,1.265
538.437,1.258
538.707,1.253
538.978,1.251
539.249,1.255
539.519,1.257
539.790,1.255
540.061,1.253
540.331,1.256
540.602,1.260
540.873,1.263
541.144,1.263
541.414,1.263
541.685,1.265
541.956,1.265
542.227,1.265
542.498,1.261
542.769,1.260
543.040,1.263
543.311,1.270
543.582,1.280
543.853,1.286
544.124,1.292
544.396,1.293
544.667,1.291
544.938,1.282
545.209,1.263
545.480,1.252
545.752,1.248
546.023,1.255
546.294,1.253
546.566,1.247
546.837,1.237
547.109,1.229
547.380,1.225
547.652,1.223
547.923,1.224
548.195,1.229
548.466,1.240
548.738,1.251
549.009,1.256
549.281,1.253
549.553,1.242
549.824,1.227
550.096,1.214
550.368,1.211
550.640,1.214
550.911,1.220
551.183,1.231
551.455,1.248
551.727,1.255
551.999,1.249
552.271,1.236
552.543,1.226
552.815,1.221
553.087,1.226
553.359,1.232
553.631,1.236
553.903,1.237
554.175,1.240
554.447,1.249
554.719,1.252
554.991,1.249
555.263,1.239
555.535,1.229
555.808,1.222
556.080,1.219
556.352,1.219
556.624,1.219
556.897,1.217
557.169,1.214
557.441,1.212
557.714,1.212
557.986,1.213
558.258,1.214
558.531,1.218
558.803,1.222
559.076,1.227
559.348,1.225
559.621,1.221
559.893,1.220
560.166,1.217
560.438,1.212
560.711,1.203
560.983,1.200
561.256,1.203
561.528,1.208
561.801,1.212
562.074,1.217
562.346,1.225
562.619,1.232
562.892,1.231
563.164,1.228
563.437,1.229
563.710,1.230
563.983,1.224
564.255,1.211
564.528,1.210
564.801,1.217
565.074,1.225
565.346,1.224
565.619,1.224
565.892,1.227
566.165,1.224
566.438,1.213
566.711,1.202
566.984,1.200
567.257,1.204
567.529,1.210
567.802,1.219
568.075,1.224
568.348,1.222
568.621,1.214
568.894,1.209
569.167,1.211
569.440,1.210
569.713,1.204
569.986,1.196
570.259,1.192
570.532,1.196
570.805,1.200
571.078,1.203
571.351,1.206
571.625,1.207
571.898,1.203
572.171,1.194
572.444,1.189
572.717,1.196
572.990,1.207
573.263,1.210
573.536,1.203
573.809,1.192
574.083,1.186
574.356,1.192
574.629,1.203
574.902,1.209
575.175,1.208
575.448,1.202
575.721,1.201
575.995,1.201
576.268,1.202
576.541,1.207
576.814,1.212
577.087,1.217
577.361,1.218
577.634,1.216
577.907,1.206
578.180,1.193
578.453,1.185
578.727,1.187
579.000,1.192
579.273,1.199
579.546,1.206
579.820,1.212
580.093,1.214
580.366,1.209
580.639,1.200
580.913,1.194
581.186,1.191
581.459,1.193
581.732,1.188
582.005,1.185
582.279,1.182
582.552,1.185
582.825,1.186
583.098,1.187
583.372,1.190
583.645,1.195
583.918,1.200
584.191,1.200
584.464,1.199
584.738,1.199
585.011,1.197
585.284,1.193
585.557,1.189
585.831,1.194
586.104,1.203
586.377,1.214
586.650,1.217
586.923,1.217
587.196,1.213
587.470,1.206
587.743,1.200
588.016,1.195
588.289,1.198
588.562,1.206
588.835,1.210
589.109,1.205
589.382,1.195
589.655,1.186
589.928,1.180
590.201,1.176
590.474,1.180
590.747,1.190
591.020,1.197
591.293,1.199
591.567,1.198
591.840,1.196
592.113,1.193
592.386,1.186
592.659,1.178
592.932,1.175
593.205,1.178
593.478,1.183
593.751,1.185
594.024,1.185
594.297,1.180
594.570,1.179
594.843,1.183
595.116,1.191
595.389,1.194
595.662,1.189
595.934,1.188
596.207,1.191
596.480,1.200
596.753,1.206
597.026,1.207
597.299,1.205
597.572,1.202
597.844,1.197
598.117,1.187
598.390,1.178
598.663,1.175
598.936,1.181
599.208,1.187
599.481,1.191
599.754,1.190
600.026,1.180
600.299,1.171
600.572,1.165
600.844,1.162
601.117,1.159
601.390,1.158
601.662,1.162
601.935,1.166
602.207,1.169
602.480,1.171
602.752,1.171
603.025,1.164
603.297,1.162
603.570,1.169
603.842,1.180
604.115,1.188
604.387,1.190
604.660,1.185
604.932,1.181
605.204,1.184
605.477,1.191
605.749,1.200
606.021,1.206
606.294,1.208
606.566,1.201
606.838,1.197
607.110,1.196
607.383,1.201
607.655,1.204
607.927,1.209
608.199,1.216
608.471,1.219
608.743,1.213
609.015,1.205
609.287,1.203
609.559,1.206
609.831,1.210
610.103,1.209
610.375,1.206
610.647,1.199
610.919,1.194
611.191,1.191
611.463,1.193
611.735,1.195
612.007,1.193
612.278,1.190
612.550,1.187
612.822,1.191
613.094,1.196
613.365,1.202
613.637,1.205
613.909,1.206
614.180,1.205
614.452,1.203
614.723,1.198
614.995,1.192
615.266,1.187
615.538,1.188
615.809,1.191
616.081,1.189
616.352,1.185
616.623,1.183
616.895,1.184
617.166,1.183
617.437,1.178
617.709,1.178
617.980,1.184
618.251,1.189
618.522,1.192
618.793,1.199
619.065,1.210
619.336,1.207
619.607,1.197
619.878,1.186
620.149,1.188
620.420,1.189
620.691,1.186
620.962,1.187
621.232,1.192
621.503,1.191
621.774,1.184
622.045,1.177
622.316,1.183
622.586,1.193
622.857,1.204
623.128,1.205
623.398,1.205
623.669,1.202
623.940,1.194
624.210,1.186
624.481,1.184
624.751,1.185
625.021,1.181
625.292,1.175
625.562,1.175
625.833,1.176
626.103,1.170
626.373,1.164
626.643,1.164
626.914,1.170
627.184,1.178
627.454,1.181
627.724,1.183
627.994,1.182
628.264,1.180
628.534,1.177
628.804,1.174
629.074,1.176
629.344,1.182
629.614,1.183
629.884,1.178
630.154,1.171
630.424,1.163
630.693,1.156
630.963,1.144
631.233,1.136
631.502,1.136
631.772,1.146
632.041,1.158
632.311,1.163
632.581,1.164
632.850,1.163
633.119,1.158
633.389,1.149
633.658,1.143
633.928,1.148
634.197,1.160
634.466,1.175
634.735,1.185
635.004,1.184
635.274,1.178
635.543,1.171
635.812,1.173
636.081,1.175
636.350,1.178
636.619,1.178
636.888,1.179
637.157,1.180
637.426,1.183
637.694,1.182
637.963,1.176
638.232,1.168
638.501,1.163
638.769,1.168
639.038,1.177
639.307,1.187
639.575,1.191
639.844,1.186
640.112,1.178
640.381,1.168
640.649,1.166
640.917,1.169
641.186,1.174
641.454,1.178
641.722,1.174
641.991,1.167
642.259,1.157
642.527,1.152
642.795,1.152
643.063,1.152
643.331,1.153
643.599,1.156
643.867,1.162
644.135,1.167
644.403,1.168
644.671,1.167
644.939,1.169
645.206,1.173
645.474,1.176
645.742,1.170
646.009,1.158
646.277,1.151
646.545,1.156
646.812,1.171
647.080,1.184
647.347,1.188
647.615,1.181
647.882,1.170
648.149,1.160
648.417,1.156
648.684,1.158
648.951,1.164
649.219,1.169
649.486,1.169
649.753,1.163
650.020,1.157
650.287,1.152
650.554,1.150
650.821,1.149
651.088,1.152
651.355,1.157
651.622,1.159
651.889,1.162
652.155,1.163
652.422,1.167
652.689,1.170
652.956,1.173
653.222,1.179
653.489,1.188
653.755,1.193
654.022,1.191
654.288,1.183
654.555,1.179
654.821,1.179
655.088,1.181
655.354,1.182
655.620,1.184
655.887,1.183
656.153,1.181
656.419,1.179
656.685,1.177
656.951,1.174
657.217,1.171
657.483,1.168
657.749,1.167
658.015,1.168
658.281,1.169
658.547,1.164
658.813,1.158
659.079,1.151
659.345,1.150
659.610,1.150
659.876,1.152
660.142,1.152
660.407,1.153
660.673,1.156
660.939,1.158
661.204,1.155
661.470,1.151
661.735,1.149
662.000,1.151
662.266,1.152
662.531,1.152
662.796,1.151
663.062,1.149
663.327,1.146
663.592,1.148
663.857,1.154
664.122,1.159
664.388,1.160
664.653,1.163
664.918,1.168
665.183,1.171
665.448,1.172
665.712,1.170
665.977,1.173
666.242,1.173
666.507,1.165
666.772,1.155
667.037,1.149
667.301,1.153
667.566,1.156
667.831,1.156
668.095,1.155
668.360,1.155
668.624,1.154
668.889,1.155
669.153,1.153
669.418,1.156
669.682,1.158
669.946,1.163
670.211,1.168
670.475,1.175
670.739,1.186
671.004,1.198
671.268,1.216
671.532,1.231
671.796,1.225
672.060,1.208
672.324,1.190
672.588,1.191
672.852,1.198
673.116,1.223
673.380,1.242
673.644,1.229
673.908,1.197
674.172,1.169
674.436,1.168
674.700,1.170
674.963,1.171
675.227,1.169
675.491,1.164
675.754,1.162
676.018,1.162
676.282,1.167
676.545,1.168
676.809,1.164
677.072,1.155
677.336,1.151
677.599,1.153
677.863,1.153
678.126,1.157
678.389,1.165
678.653,1.174
678.916,1.175
679.179,1.168
679.442,1.160
679.706,1.158
679.969,1.161
680.232,1.165
680.495,1.172
680.758,1.177
681.021,1.175
681.284,1.166
681.547,1.159
681.810,1.161
682.073,1.171
682.336,1.176
682.599,1.173
682.862,1.169
683.125,1.168
683.388,1.172
683.651,1.174
683.913,1.168
684.176,1.158
684.439,1.147
684.702,1.141
684.964,1.141
685.227,1.145
685.490,1.156
685.752,1.169
686.015,1.174
686.277,1.170
686.540,1.160
686.802,1.155
687.065,1.155
687.327,1.158
687.590,1.161
687.852,1.157
688.115,1.147
688.377,1.141
688.639,1.141
688.902,1.145
689.164,1.154
689.426,1.164
689.689,1.171
689.951,1.168
690.213,1.163
690.475,1.161
690.737,1.159
691.000,1.157
691.262,1.157
691.524,1.163
691.786,1.172
692.048,1.182
692.310,1.182
692.572,1.172
692.834,1.159
693.096,1.156
693.358,1.161
693.620,1.172
693.882,1.181
694.144,1.185
694.406,1.178
694.668,1.172
694.930,1.167
695.192,1.164
695.453,1.162
695.715,1.158
695.977,1.153
696.239,1.146
696.501,1.143
696.762,1.149
697.024,1.156
697.286,1.156
697.548,1.154
697.809,1.155
698.071,1.156
698.333,1.155
698.594,1.155
698.856,1.159
699.118,1.162
699.379,1.165
699.641,1.168
699.902,1.172
700.164,1.170
700.426,1.166
700.687,1.160
700.949,1.160
701.210,1.159
701.472,1.154
701.733,1.148
701.995,1.146
702.256,1.148
702.518,1.149
702.779,1.149
703.041,1.158
703.302,1.169
703.563,1.172
703.825,1.166
704.086,1.159
704.348,1.156
704.609,1.158
704.871,1.165
705.132,1.169
705.393,1.162
705.655,1.156
705.916,1.153
706.177,1.154
706.439,1.153
706.700,1.151
706.961,1.148
707.223,1.144
707.484,1.137
707.745,1.130
708.007,1.118
708.268,1.107
708.529,1.093
708.790,1.081
709.052,1.073
709.313,1.072
709.574,1.074
709.835,1.077
710.097,1.074
710.358,1.066
710.619,1.056
710.881,1.049
711.142,1.046
711.403,1.046
711.664,1.046
711.926,1.043
712.187,1.043
712.448,1.049
712.709,1.059
712.970,1.064
713.232,1.065
713.493,1.064
713.754,1.063
714.015,1.065
714.277,1.070
714.538,1.080
714.799,1.091
715.060,1.097
715.322,1.096
715.583,1.086
715.844,1.075
716.105,1.062
716.367,1.053
716.628,1.052
716.889,1.054
717.150,1.054
717.411,1.051
717.673,1.055
717.934,1.061
718.195,1.067
718.457,1.064
718.718,1.057
718.979,1.054
719.240,1.059
719.502,1.066
719.763,1.071
720.024,1.069
720.286,1.066
720.547,1.062
720.808,1.060
721.069,1.059
721.331,1.062
721.592,1.067
721.853,1.068
722.115,1.069
722.376,1.070
722.638,1.068
722.899,1.062
723.160,1.054
723.422,1.046
723.683,1.042
723.944,1.043
724.206,1.046
724.467,1.048
724.729,1.051
724.990,1.059
725.252,1.067
725.513,1.064
725.775,1.055
726.036,1.045
726.298,1.046
726.559,1.050
726.821,1.052
727.082,1.048
727.344,1.044
727.605,1.040
727.867,1.038
728.128,1.042
728.390,1.046
728.652,1.054
728.913,1.062
729.175,1.066
729.436,1.068
729.698,1.067
729.960,1.064
730.221,1.058
730.483,1.050
730.745,1.046
731.007,1.044
731.268,1.046
731.530,1.050
731.792,1.056
732.054,1.061
732.315,1.065
732.577,1.066
732.839,1.060
733.101,1.051
733.363,1.045
733.625,1.044
733.887,1.045
734.149,1.046
734.411,1.048
734.673,1.050
734.935,1.052
735.197,1.053
735.459,1.055
735.721,1.055
735.983,1.050
736.245,1.046
736.507,1.048
736.769,1.058
737.031,1.064
737.293,1.059
737.555,1.047
737.818,1.037
738.080,1.034
738.342,1.031
738.604,1.031
738.867,1.030
739.129,1.033
739.391,1.037
739.654,1.042
739.916,1.045
740.178,1.050
740.441,1.054
740.703,1.055
740.966,1.052
741.228,1.048
741.491,1.047
741.753,1.050
742.016,1.052
742.278,1.056
742.541,1.058
742.804,1.061
743.066,1.066
743.329,1.065
743.592,1.062
743.854,1.059
744.117,1.060
744.380,1.061
744.643,1.060
744.905,1.058
745.168,1.056
745.431,1.056
745.694,1.053
745.957,1.050
746.220,1.047
746.483,1.045
746.746,1.046
747.009,1.054
747.272,1.069
747.535,1.078
747.798,1.075
748.061,1.063
748.324,1.053
748.588,1.051
748.851,1.053
749.114,1.051
749.377,1.046
749.641,1.040
749.904,1.043
750.167,1.051
750.431,1.060
750.694,1.069
750.958,1.074
751.221,1.069
751.485,1.056
751.748,1.045
752.012,1.046
752.275,1.057
752.539,1.063
752.803,1.062
753.066,1.056
753.330,1.049
753.594,1.046
753.857,1.045
754.121,1.049
754.385,1.054
754.649,1.058
754.913,1.061
755.177,1.061
755.441,1.056
755.705,1.047
755.969,1.043
756.233,1.047
756.497,1.051
756.761,1.051
757.025,1.047
757.289,1.044
757.553,1.045
757.818,1.048
758.082,1.054
758.346,1.057
758.610,1.056
758.875,1.052
759.139,1.050
759.404,1.048
759.668,1.046
759.932,1.047
760.197,1.050
760.462,1.051
760.726,1.050
760.991,1.051
761.255,1.053
761.520,1.056
761.785,1.053
762.049,1.046
762.314,1.041
762.579,1.043
762.844,1.048
763.109,1.048
763.374,1.045
763.639,1.042
763.903,1.042
764.168,1.043
764.433,1.048
764.699,1.057
764.964,1.060
765.229,1.056
765.494,1.046
765.759,1.041
766.024,1.040
766.290,1.044
766.555,1.051
766.820,1.057
767.086,1.057
767.351,1.054
767.616,1.052
767.882,1.050
768.147,1.051
768.413,1.049
768.678,1.048
768.944,1.046
769.209,1.048
769.475,1.053
769.741,1.061
770.006,1.069
770.272,1.074
770.538,1.072
770.804,1.068
771.070,1.067
771.335,1.071
771.601,1.078
771.867,1.079
772.133,1.073
772.399,1.063
772.665,1.054
772.931,1.055
773.197,1.061
773.464,1.069
773.730,1.070
773.996,1.067
774.262,1.064
774.528,1.063
774.795,1.065
775.061,1.069
775.327,1.068
775.594,1.061
775.860,1.051
776.126,1.043
776.393,1.042
776.659,1.044
776.926,1.046
777.193,1.048
777.459,1.046
777.726,1.042
777.992,1.037
778.259,1.034
778.526,1.038
778.793,1.044
779.059,1.053
779.326,1.059
779.593,1.062
779.860,1.066
780.127,1.067
780.394,1.068
780.661,1.064
780.928,1.059
781.195,1.053
781.462,1.050
781.729,1.051
781.996,1.053
782.263,1.057
782.530,1.063
782.797,1.064
783.064,1.059
783.332,1.050
783.599,1.045
783.866,1.043
784.134,1.041
784.401,1.041
784.668,1.045
784.936,1.048
785.203,1.048
785.470,1.046
785.738,1.045
786.005,1.046
786.273,1.044
786.541,1.041
786.808,1.040
787.076,1.042
787.343,1.044
787.611,1.050
787.879,1.059
788.146,1.062
788.414,1.063
788.682,1.056
788.950,1.053
789.217,1.053
789.485,1.061
789.753,1.067
790.021,1.063
790.289,1.053
790.557,1.042
790.825,1.038
791.093,1.045
791.361,1.059
791.629,1.072
791.897,1.074
792.165,1.069
792.433,1.057
792.701,1.043
792.969,1.032
793.237,1.026
793.505,1.031
793.773,1.039
794.042,1.043
794.310,1.041
794.578,1.037
794.846,1.036
795.115,1.037
795.383,1.042
795.651,1.050
795.920,1.055
796.188,1.055
796.456,1.055
796.725,1.053
796.993,1.055
797.261,1.055
797.530,1.054
797.798,1.054
798.067,1.060
798.335,1.068
798.604,1.068
798.872,1.059
799.141,1.047
799.409,1.042
799.678,1.044
799.946,1.050
800.215,1.052
800.483,1.051
800.752,1.050
801.020,1.047
801.289,1.045
801.558,1.046
801.826,1.048
802.095,1.046
802.363,1.044
802.632,1.046
802.901,1.052
803.169,1.053
803.438,1.050
803.707,1.041
803.976,1.036
804.244,1.034
804.513,1.036
804.782,1.032
805.050,1.031
805.319,1.036
805.588,1.049
805.857,1.061
806.125,1.065
806.394,1.062
806.663,1.054
806.931,1.046
807.200,1.040
807.469,1.037
807.738,1.033
808.006,1.032
808.275,1.039
808.544,1.051
808.813,1.061
809.082,1.059
809.350,1.054
809.619,1.051
809.888,1.047
810.157,1.044
810.425,1.040
810.694,1.043
810.963,1.046
811.232,1.045
811.500,1.038
811.769,1.030
812.038,1.029
812.306,1.034
812.575,1.039
812.844,1.045
813.113,1.049
813.381,1.051
813.650,1.051
813.919,1.052
814.187,1.055
814.456,1.059
814.725,1.061
814.993,1.063
815.262,1.063
815.531,1.062
815.799,1.060
816.068,1.054
816.336,1.047
816.605,1.041
816.873,1.041
817.142,1.046
817.411,1.052
817.679,1.056
817.948,1.061
818.216,1.074
818.485,1.095
818.753,1.110
819.021,1.096
819.290,1.066
819.558,1.047
819.827,1.052
820.095,1.059
820.363,1.058
820.632,1.055
820.900,1.052
821.168,1.055
821.437,1.058
821.705,1.063
821.973,1.064
822.241,1.066
822.509,1.067
822.777,1.064
823.046,1.059
823.314,1.056
823.582,1.059
823.850,1.065
824.118,1.072
824.386,1.070
824.654,1.057
824.922,1.043
825.190,1.035
825.457,1.041
825.725,1.048
825.993,1.049
826.261,1.047
826.529,1.047
826.796,1.050
827.064,1.048
827.332,1.046
827.599,1.053
827.867,1.064
828.134,1.068
828.402,1.060
828.669,1.050
828.937,1.046
829.204,1.054
829.471,1.067
829.739,1.076
830.006,1.076
830.273,1.069
830.540,1.056
830.807,1.043
831.075,1.036
831.342,1.038
831.609,1.042
831.876,1.046
832.142,1.050
832.409,1.054
832.676,1.052
832.943,1.044
833.210,1.037
833.476,1.035
833.743,1.040
834.010,1.045
834.276,1.043
834.543,1.039
834.809,1.041
835.076,1.047
835.342,1.054
835.608,1.062
835.874,1.066
836.141,1.064
836.407,1.055
836.673,1.050
836.939,1.053
837.205,1.053
837.471,1.051
837.737,1.048
838.002,1.048
838.268,1.051
838.534,1.053
838.799,1.052
839.065,1.052
839.330,1.051
839.596,1.054
839.861,1.060
840.127,1.065
840.392,1.067
840.657,1.065
840.922,1.070
841.187,1.076
841.452,1.079
841.717,1.079
841.982,1.071
842.247,1.060
842.511,1.050
842.776,1.048
843.041,1.052
843.305,1.049
843.570,1.047
843.834,1.048
844.098,1.049
844.362,1.048
844.627,1.046
844.891,1.048
845.155,1.054
845.419,1.059
845.682,1.060
845.946,1.058
846.210,1.058
846.474,1.056
846.737,1.058
847.001,1.057
847.264,1.054
847.527,1.049
847.790,1.050
848.054,1.051
848.317,1.049
848.580,1.045
848.843,1.046
849.105,1.053
849.368,1.062
849.631,1.070
849.893,1.077
850.156,1.086
850.418,1.087
850.680,1.074
850.943,1.062
851.205,1.057
851.467,1.057
851.729,1.053
851.991,1.050
852.252,1.051
852.514,1.054
852.776,1.059
853.037,1.065
853.298,1.064
853.560,1.056
853.821,1.043
854.082,1.036
854.343,1.040
854.604,1.052
854.865,1.065
855.126,1.074
855.386,1.078
855.647,1.079
855.907,1.078
856.168,1.072
856.428,1.065
856.688,1.059
856.948,1.050
857.208,1.046
857.468,1.046
857.727,1.050
857.987,1.056
858.247,1.062
858.506,1.070
858.765,1.070
859.024,1.059
859.284,1.045
859.543,1.037
859.801,1.036
860.060,1.043
860.319,1.053
860.577,1.063
860.836,1.068
861.094,1.069
861.352,1.068
861.611,1.063
861.869,1.052
862.127,1.046
862.384,1.047
862.642,1.051
862.900,1.058
863.157,1.065
863.414,1.071
863.672,1.066
863.929,1.054
864.186,1.048
864.443,1.050
864.699,1.057
864.956,1.058
865.212,1.054
865.469,1.053
865.725,1.057
865.981,1.063
866.237,1.064
866.493,1.061
866.749,1.052
867.005,1.046
867.260,1.041
867.516,1.040
867.771,1.038
868.026,1.042
868.282,1.052
868.536,1.060
868.791,1.059
869.046,1.050
869.301,1.043
869.555,1.043
869.809,1.050
870.064,1.055
870.318,1.060
870.572,1.062
870.826,1.056
871.079,1.046
871.333,1.041
871.586,1.045
871.840,1.047
872.093,1.047
872.346,1.053
872.599,1.063
872.852,1.074
873.105,1.076
873.357,1.070
873.610,1.063
873.862,1.064
874.114,1.071
874.366,1.073
874.618,1.066
874.870,1.053
875.121,1.042
875.373,1.038
875.624,1.041
875.876,1.046
876.127,1.048
876.378,1.046
876.629,1.044
876.879,1.044
877.130,1.047
877.381,1.048
877.631,1.049
877.881,1.050
878.131,1.056
878.381,1.063
878.631,1.073
878.881,1.078
879.130,1.077
879.380,1.069
879.629,1.061
879.878,1.054
880.127,1.048
880.376,1.047
880.625,1.052
880.873,1.059
881.122,1.063
881.370,1.061
881.618,1.053
881.866,1.046
882.114,1.041
882.362,1.044
882.610,1.048
882.857,1.053
883.105,1.051
883.352,1.043
883.599,1.037
883.846,1.033
884.093,1.037
884.340,1.046
884.586,1.059
884.833,1.066
885.079,1.065
885.325,1.060
885.571,1.053
885.817,1.051
886.063,1.052
886.309,1.056
886.554,1.063
886.800,1.071
887.045,1.075
887.290,1.067
887.535,1.056
887.780,1.050
888.025,1.057
888.270,1.069
888.514,1.078
888.758,1.079
889.003,1.070
889.247,1.058
889.491,1.057
889.735,1.060
889.978,1.065
890.222,1.064
890.465,1.061
890.709,1.057
890.952,1.054
891.195,1.052
891.438,1.049
891.681,1.044
891.923,1.041
892.166,1.042
892.408,1.043
892.651,1.041
892.893,1.038
893.135,1.038
893.377,1.039
893.619,1.041
893.861,1.046
894.102,1.053
894.344,1.064
894.585,1.076
894.826,1.081
895.067,1.073
895.308,1.063
895.549,1.054
895.790,1.050
896.031,1.046
896.271,1.049
896.512,1.059
896.752,1.064
896.992,1.062
897.232,1.053
897.472,1.051
897.712,1.059
897.952,1.072
898.191,1.077
898.431,1.077
898.670,1.075
898.910,1.077
899.149,1.082
899.388,1.085
899.627,1.083
899.866,1.072
900.105,1.060
900.343,1.055
900.582,1.057
900.820,1.063
901.059,1.074
901.297,1.080
901.535,1.074
901.773,1.058
902.011,1.044
902.249,1.035
902.487,1.032
902.725,1.033
902.963,1.038
903.200,1.040
903.438,1.040
903.675,1.041
903.912,1.047
904.150,1.054
904.387,1.055
904.624,1.047
904.861,1.038
905.098,1.035
905.334,1.038
905.571,1.039
905.808,1.041
906.045,1.045
906.281,1.049
906.518,1.054
906.754,1.059
906.990,1.065
907.227,1.065
907.463,1.059
907.699,1.054
907.935,1.056
908.171,1.061
908.407,1.064
908.643,1.063
908.879,1.061
909.115,1.062
909.350,1.062
909.586,1.060
909.822,1.058
910.057,1.064
910.293,1.077
910.528,1.082
910.764,1.078
910.999,1.071
911.235,1.067
911.470,1.070
911.706,1.071
911.941,1.072
912.176,1.065
912.412,1.058
912.647,1.059
912.882,1.064
913.117,1.067
913.352,1.063
913.588,1.053
913.823,1.045
914.058,1.041
914.293,1.044
914.528,1.042
914.763,1.042
914.999,1.040
915.234,1.043
915.469,1.045
915.704,1.045
915.939,1.045
916.174,1.043
916.409,1.045
916.645,1.054
916.880,1.061
917.115,1.063
917.350,1.055
917.586,1.052
917.821,1.053
918.056,1.062
918.292,1.071
918.527,1.074
918.763,1.068
918.998,1.062
919.234,1.071
919.469,1.084
919.705,1.088
919.940,1.077
920.176,1.065
920.412,1.064
920.648,1.066
920.884,1.067
921.120,1.064
921.356,1.058
921.592,1.051
921.828,1.045
922.065,1.044
922.301,1.052
922.537,1.061
922.774,1.066
923.011,1.058
923.247,1.051
923.484,1.052
923.721,1.060
923.958,1.064
924.195,1.061
924.433,1.054
924.670,1.045
924.908,1.034
925.145,1.033
925.383,1.041
925.621,1.052
925.859,1.061
926.097,1.066
926.335,1.068
926.574,1.071
926.813,1.071
927.051,1.069
927.290,1.067
927.529,1.074
927.769,1.088
928.008,1.093
928.248,1.083
928.487,1.070
928.727,1.064
928.967,1.070
929.208,1.074
929.448,1.073
929.689,1.067
929.930,1.058
930.171,1.049
930.413,1.045
930.654,1.044
930.896,1.044
931.138,1.040
931.380,1.039
931.623,1.045
931.865,1.052
932.108,1.060
932.352,1.064
932.595,1.066
932.839,1.066
933.083,1.063
933.327,1.055
933.571,1.047
933.816,1.048
934.061,1.052
934.307,1.052
934.552,1.042
934.798,1.036
935.045,1.039
935.291,1.046
935.538,1.051
935.785,1.055
936.033,1.060
936.281,1.064
936.529,1.066
936.777,1.066
937.026,1.061
937.275,1.056
937.525,1.050
937.775,1.046
938.025,1.041
938.276,1.041
938.527,1.041
938.778,1.041
939.030,1.038
939.282,1.035
939.535,1.036
939.788,1.042
940.041,1.044
940.295,1.042
940.550,1.044
940.804,1.055
941.059,1.063
941.315,1.059
941.571,1.050
941.828,1.046
942.085,1.047
942.342,1.049
942.600,1.047
942.858,1.047
943.117,1.046
943.377,1.043
943.636,1.039
943.897,1.038
944.158,1.045
944.419,1.056
944.681,1.065
944.944,1.069
945.207,1.069
945.470,1.071
945.734,1.074
945.999,1.081
946.264,1.087
946.530,1.088
946.797,1.082
947.064,1.075
947.331,1.068
947.600,1.061
947.869,1.055
948.138,1.048
948.408,1.045
948.679,1.045
948.950,1.048
949.222,1.046
949.495,1.042
949.768,1.041
950.043,1.046
