Wavelength (nm),Intensity Source #12,,Untitled.sp,,,Source #12,
379.792,2.046,,2018-06-12 09:49:14,,Integration Time,942 ms,
380.000,2.009,,Analyze Light,,Number of Scans to Average,25,
380.209,1.962,,,,Smoothing,1,
380.418,1.998
380.627,2.057
380.837,2.122
381.048,2.137
381.259,2.124
381.471,2.096
381.683,2.094
381.896,2.114
382.110,2.113
382.324,2.140
382.538,2.204
382.753,2.257
382.969,2.197
383.185,2.089
383.402,2.002
383.619,2.013
383.837,2.070
384.055,2.159
384.274,2.229
384.493,2.238
384.712,2.205
384.932,2.171
385.153,2.163
385.374,2.162
385.596,2.165
385.818,2.214
386.040,2.277
386.263,2.325
386.487,2.303
386.710,2.244
386.935,2.156
387.159,2.103
387.385,2.060
387.610,2.039
387.836,2.028
388.063,2.035
388.289,2.052
388.517,2.052
388.744,2.032
388.972,2.056
389.201,2.074
389.430,2.089
389.659,2.075
389.889,2.087
390.119,2.106
390.349,2.114
390.580,2.120
390.811,2.114
391.042,2.107
391.274,2.103
391.507,2.102
391.739,2.070
391.972,2.021
392.205,2.014
392.439,2.048
392.673,2.075
392.907,2.086
393.142,2.103
393.377,2.131
393.612,2.158
393.848,2.154
394.084,2.142
394.320,2.113
394.557,2.118
394.794,2.124
395.031,2.159
395.269,2.182
395.507,2.201
395.745,2.185
395.983,2.168
396.222,2.178
396.461,2.230
396.700,2.303
396.940,2.329
397.180,2.306
397.420,2.234
397.660,2.173
397.901,2.123
398.142,2.119
398.383,2.088
398.625,2.054
398.866,2.054
399.108,2.148
399.351,2.292
399.593,2.324
399.836,2.277
400.079,2.180
400.322,2.118
400.566,2.062
400.809,2.021
401.053,2.017
401.298,2.030
401.542,2.074
401.787,2.123
402.031,2.168
402.277,2.179
402.522,2.164
402.767,2.159
403.013,2.131
403.259,2.112
403.505,2.082
403.752,2.061
403.998,2.050
404.245,2.111
404.492,2.207
404.739,2.276
404.986,2.295
405.234,2.290
405.482,2.284
405.730,2.243
405.978,2.221
406.226,2.164
406.475,2.092
406.723,2.030
406.972,2.037
407.221,2.078
407.470,2.098
407.720,2.097
407.969,2.047
408.219,2.040
408.469,2.065
408.719,2.121
408.969,2.130
409.219,2.136
409.470,2.149
409.720,2.177
409.971,2.196
410.222,2.228
410.473,2.227
410.724,2.199
410.976,2.190
411.227,2.210
411.479,2.215
411.731,2.183
411.983,2.134
412.235,2.103
412.487,2.081
412.740,2.093
412.992,2.112
413.245,2.128
413.497,2.118
413.750,2.105
414.003,2.077
414.257,2.039
414.510,2.018
414.763,2.029
415.017,2.053
415.270,2.061
415.524,2.056
415.778,2.054
416.032,2.065
416.286,2.108
416.540,2.142
416.794,2.170
417.049,2.163
417.303,2.164
417.558,2.189
417.812,2.207
418.067,2.218
418.322,2.202
418.577,2.184
418.832,2.150
419.088,2.095
419.343,2.075
419.598,2.044
419.854,2.055
420.109,2.081
420.365,2.158
420.621,2.206
420.876,2.244
421.132,2.242
421.388,2.210
421.645,2.163
421.901,2.147
422.157,2.156
422.413,2.159
422.670,2.136
422.926,2.111
423.183,2.053
423.439,2.049
423.696,2.092
423.953,2.228
424.210,2.330
424.467,2.335
424.724,2.270
424.981,2.167
425.238,2.137
425.495,2.155
425.753,2.190
426.010,2.197
426.267,2.164
426.525,2.172
426.782,2.187
427.040,2.210
427.298,2.236
427.555,2.264
427.813,2.274
428.071,2.264
428.329,2.254
428.587,2.232
428.845,2.227
429.103,2.211
429.361,2.193
429.619,2.145
429.878,2.115
430.136,2.121
430.394,2.128
430.653,2.192
430.911,2.292
431.170,2.406
431.428,2.429
431.687,2.388
431.946,2.322
432.204,2.282
432.463,2.281
432.722,2.257
432.981,2.221
433.240,2.194
433.499,2.217
433.758,2.277
434.017,2.278
434.276,2.228
434.535,2.125
434.794,2.040
435.053,2.018
435.312,2.035
435.572,2.051
435.831,2.052
436.090,2.081
436.350,2.119
436.609,2.153
436.869,2.137
437.128,2.105
437.388,2.052
437.647,2.038
437.907,2.058
438.166,2.080
438.426,2.054
438.686,2.022
438.946,2.002
439.205,2.025
439.465,2.052
439.725,2.119
439.985,2.171
440.245,2.177
440.505,2.155
440.765,2.131
441.025,2.110
441.285,2.123
441.545,2.153
441.805,2.190
442.065,2.145
442.325,2.063
442.585,2.016
442.846,2.007
443.106,2.052
443.366,2.100
443.626,2.139
443.887,2.148
444.147,2.108
444.407,2.088
444.668,2.062
444.928,2.059
445.189,2.070
445.449,2.096
445.710,2.111
445.970,2.113
446.231,2.104
446.491,2.135
446.752,2.125
447.012,2.131
447.273,2.169
447.534,2.225
447.794,2.202
448.055,2.108
448.316,2.047
448.577,2.058
448.837,2.095
449.098,2.148
449.359,2.193
449.620,2.198
449.881,2.154
450.142,2.092
450.403,2.085
450.664,2.106
450.924,2.121
451.185,2.115
451.446,2.125
451.707,2.153
451.969,2.208
452.230,2.234
452.491,2.271
452.752,2.255
453.013,2.222
453.274,2.189
453.535,2.181
453.796,2.147
454.058,2.082
454.319,2.047
454.580,2.083
454.841,2.158
455.103,2.164
455.364,2.113
455.625,2.062
455.887,2.057
456.148,2.086
456.409,2.136
456.671,2.188
456.932,2.213
457.194,2.189
457.455,2.163
457.716,2.157
457.978,2.189
458.239,2.207
458.501,2.216
458.763,2.169
459.024,2.127
459.286,2.108
459.547,2.126
459.809,2.121
460.071,2.139
460.332,2.182
460.594,2.234
460.856,2.240
461.117,2.182
461.379,2.172
461.641,2.184
461.903,2.210
462.164,2.207
462.426,2.201
462.688,2.206
462.950,2.193
463.212,2.204
463.474,2.174
463.736,2.150
463.998,2.154
464.260,2.230
464.522,2.334
464.784,2.349
465.046,2.266
465.308,2.182
465.570,2.156
465.832,2.195
466.094,2.237
466.356,2.284
466.618,2.328
466.880,2.315
467.142,2.244
467.405,2.185
467.667,2.205
467.929,2.272
468.191,2.346
468.454,2.377
468.716,2.413
468.978,2.415
469.241,2.357
469.503,2.297
469.765,2.257
470.028,2.278
470.290,2.237
470.552,2.159
470.815,2.089
471.077,2.070
471.340,2.102
471.602,2.116
471.865,2.088
472.128,2.015
472.390,1.971
472.653,1.961
472.915,1.979
473.178,1.994
473.441,2.034
473.703,2.092
473.966,2.171
474.229,2.236
474.492,2.261
474.755,2.199
475.017,2.163
475.280,2.147
475.543,2.193
475.806,2.166
476.069,2.118
476.332,2.067
476.595,2.074
476.858,2.088
477.121,2.068
477.384,2.028
477.647,2.025
477.910,2.053
478.173,2.078
478.436,2.061
478.699,2.047
478.962,2.032
479.226,2.071
479.489,2.102
479.752,2.159
480.015,2.208
480.279,2.278
480.542,2.326
480.805,2.321
481.069,2.272
481.332,2.217
481.595,2.190
481.859,2.231
482.122,2.266
482.386,2.258
482.649,2.203
482.913,2.145
483.177,2.091
483.440,2.012
483.704,1.953
483.967,1.971
484.231,2.046
484.495,2.138
484.759,2.196
485.022,2.203
485.286,2.195
485.550,2.172
485.814,2.103
486.078,2.020
486.342,1.978
486.606,2.035
486.869,2.099
487.133,2.146
487.397,2.192
487.662,2.227
487.926,2.225
488.190,2.202
488.454,2.189
488.718,2.199
488.982,2.170
489.246,2.152
489.511,2.131
489.775,2.135
490.039,2.152
490.304,2.148
490.568,2.119
490.832,2.090
491.097,2.115
491.361,2.159
491.626,2.194
491.890,2.197
492.155,2.205
492.419,2.216
492.684,2.199
492.949,2.189
493.213,2.208
493.478,2.277
493.743,2.288
494.008,2.205
494.272,2.110
494.537,2.095
494.802,2.145
495.067,2.216
495.332,2.274
495.597,2.321
495.862,2.325
496.127,2.316
496.392,2.276
496.657,2.207
496.922,2.149
497.187,2.134
497.452,2.170
497.718,2.247
497.983,2.289
498.248,2.290
498.513,2.236
498.779,2.249
499.044,2.304
499.310,2.318
499.575,2.269
499.841,2.229
500.106,2.229
500.372,2.201
500.637,2.197
500.903,2.256
501.168,2.327
501.434,2.318
501.700,2.226
501.966,2.171
502.231,2.139
502.497,2.133
502.763,2.093
503.029,2.060
503.295,2.057
503.561,2.065
503.827,2.104
504.093,2.132
504.359,2.155
504.625,2.159
504.891,2.133
505.157,2.132
505.423,2.088
505.690,2.034
505.956,1.984
506.222,2.013
506.489,2.131
506.755,2.266
507.021,2.356
507.288,2.386
507.554,2.352
507.821,2.316
508.087,2.290
508.354,2.337
508.621,2.362
508.887,2.342
509.154,2.300
509.421,2.281
509.687,2.250
509.954,2.211
510.221,2.174
510.488,2.214
510.755,2.269
511.022,2.329
511.289,2.297
511.556,2.251
511.823,2.212
512.090,2.277
512.357,2.310
512.624,2.331
512.891,2.297
513.159,2.275
513.426,2.256
513.693,2.270
513.960,2.304
514.228,2.304
514.495,2.287
514.763,2.259
515.030,2.248
515.298,2.209
515.565,2.200
515.833,2.201
516.100,2.209
516.368,2.210
516.636,2.204
516.904,2.234
517.171,2.222
517.439,2.223
517.707,2.184
517.975,2.175
518.243,2.188
518.511,2.208
518.779,2.163
519.047,2.151
519.315,2.151
519.583,2.159
519.851,2.096
520.119,2.049
520.387,2.040
520.656,2.057
520.924,2.084
521.192,2.122
521.461,2.163
521.729,2.207
521.997,2.240
522.266,2.248
522.534,2.232
522.803,2.231
523.071,2.221
523.340,2.171
523.609,2.103
523.877,2.060
524.146,2.064
524.415,2.092
524.684,2.129
524.952,2.126
525.221,2.113
525.490,2.137
525.759,2.192
526.028,2.221
526.297,2.160
526.566,2.100
526.835,2.058
527.104,2.069
527.373,2.095
527.642,2.110
527.912,2.085
528.181,2.047
528.450,2.042
528.719,2.083
528.989,2.169
529.258,2.246
529.528,2.272
529.797,2.230
530.067,2.205
530.336,2.179
530.606,2.166
530.875,2.116
531.145,2.092
531.414,2.096
531.684,2.142
531.954,2.157
532.224,2.137
532.493,2.050
532.763,1.997
533.033,1.996
533.303,2.050
533.573,2.106
533.843,2.085
534.113,2.059
534.383,2.008
534.653,2.014
534.923,2.039
535.193,2.083
535.463,2.148
535.733,2.196
536.004,2.232
536.274,2.245
536.544,2.211
536.814,2.156
537.085,2.088
537.355,2.092
537.626,2.162
537.896,2.225
538.166,2.238
538.437,2.207
538.707,2.168
538.978,2.155
539.249,2.184
539.519,2.205
539.790,2.170
540.061,2.131
540.331,2.157
540.602,2.247
540.873,2.309
541.144,2.326
541.414,2.301
541.685,2.284
541.956,2.262
542.227,2.245
542.498,2.202
542.769,2.173
543.040,2.187
543.311,2.260
543.582,2.344
543.853,2.389
544.124,2.404
544.396,2.416
544.667,2.421
544.938,2.414
545.209,2.298
545.480,2.222
545.752,2.174
546.023,2.236
546.294,2.238
546.566,2.203
546.837,2.138
547.109,2.113
547.380,2.104
547.652,2.096
547.923,2.093
548.195,2.134
548.466,2.219
548.738,2.314
549.009,2.329
549.281,2.295
549.553,2.217
549.824,2.121
550.096,2.055
550.368,2.036
550.640,2.064
550.911,2.113
551.183,2.200
551.455,2.330
551.727,2.418
551.999,2.398
552.271,2.301
552.543,2.216
552.815,2.173
553.087,2.206
553.359,2.257
553.631,2.287
553.903,2.282
554.175,2.293
554.447,2.333
554.719,2.352
554.991,2.346
555.263,2.326
555.535,2.300
555.808,2.268
556.080,2.225
556.352,2.199
556.624,2.184
556.897,2.169
557.169,2.160
557.441,2.147
557.714,2.122
557.986,2.116
558.258,2.096
558.531,2.139
558.803,2.178
559.076,2.228
559.348,2.213
559.621,2.171
559.893,2.160
560.166,2.163
560.438,2.168
560.711,2.137
560.983,2.115
561.256,2.114
561.528,2.151
561.801,2.205
562.074,2.271
562.346,2.328
562.619,2.379
562.892,2.375
563.164,2.336
563.437,2.310
563.710,2.300
563.983,2.260
564.255,2.194
564.528,2.202
564.801,2.279
565.074,2.341
565.346,2.314
565.619,2.277
565.892,2.294
566.165,2.295
566.438,2.233
566.711,2.149
566.984,2.124
567.257,2.139
567.529,2.183
567.802,2.261
568.075,2.349
568.348,2.362
568.621,2.351
568.894,2.306
569.167,2.287
569.440,2.251
569.713,2.186
569.986,2.157
570.259,2.126
570.532,2.168
570.805,2.207
571.078,2.242
571.351,2.265
571.625,2.277
571.898,2.257
572.171,2.198
572.444,2.148
572.717,2.175
572.990,2.257
573.263,2.272
573.536,2.228
573.809,2.136
574.083,2.103
574.356,2.131
574.629,2.233
574.902,2.298
575.175,2.309
575.448,2.239
575.721,2.190
575.995,2.170
576.268,2.178
576.541,2.225
576.814,2.276
577.087,2.333
577.361,2.355
577.634,2.352
577.907,2.290
578.180,2.205
578.453,2.155
578.727,2.173
579.000,2.205
579.273,2.245
579.546,2.309
579.820,2.398
580.093,2.434
580.366,2.404
580.639,2.327
580.913,2.295
581.186,2.287
581.459,2.302
581.732,2.261
582.005,2.231
582.279,2.202
582.552,2.223
582.825,2.249
583.098,2.281
583.372,2.316
583.645,2.346
583.918,2.382
584.191,2.395
584.464,2.389
584.738,2.374
585.011,2.369
585.284,2.365
585.557,2.357
585.831,2.371
586.104,2.434
586.377,2.543
586.650,2.614
586.923,2.615
587.196,2.573
587.470,2.500
587.743,2.457
588.016,2.419
588.289,2.433
588.562,2.482
588.835,2.506
589.109,2.483
589.382,2.429
589.655,2.381
589.928,2.363
590.201,2.350
590.474,2.400
590.747,2.468
591.020,2.544
591.293,2.574
591.567,2.585
591.840,2.554
592.113,2.518
592.386,2.453
592.659,2.404
592.932,2.389
593.205,2.431
593.478,2.471
593.751,2.464
594.024,2.441
594.297,2.410
594.570,2.404
594.843,2.443
595.116,2.509
595.389,2.563
595.662,2.554
595.934,2.555
596.207,2.584
596.480,2.643
596.753,2.693
597.026,2.698
597.299,2.691
597.572,2.677
597.844,2.663
598.117,2.613
598.390,2.568
598.663,2.542
598.936,2.563
599.208,2.598
599.481,2.636
599.754,2.666
600.026,2.618
600.299,2.565
600.572,2.525
600.844,2.531
601.117,2.510
601.390,2.499
601.662,2.510
601.935,2.527
602.207,2.541
602.480,2.577
602.752,2.618
603.025,2.613
603.297,2.606
603.570,2.655
603.842,2.777
604.115,2.860
604.387,2.913
604.660,2.890
604.932,2.882
605.204,2.907
605.477,2.985
605.749,3.103
606.021,3.198
606.294,3.268
606.566,3.259
606.838,3.288
607.110,3.348
607.383,3.481
607.655,3.606
607.927,3.754
608.199,3.902
608.471,4.023
608.743,4.069
609.015,4.071
609.287,4.073
609.559,4.103
609.831,4.160
610.103,4.199
610.375,4.204
610.647,4.153
610.919,4.064
611.191,3.986
611.463,3.932
611.735,3.883
612.007,3.797
612.278,3.714
612.550,3.670
612.822,3.682
613.094,3.715
613.365,3.704
613.637,3.726
613.909,3.731
614.180,3.766
614.452,3.750
614.723,3.707
614.995,3.654
615.266,3.634
615.538,3.693
615.809,3.776
616.081,3.806
616.352,3.776
616.623,3.743
616.895,3.748
617.166,3.760
617.437,3.779
617.709,3.818
617.980,3.893
618.251,3.978
618.522,4.067
618.793,4.169
619.065,4.310
619.336,4.357
619.607,4.338
619.878,4.320
620.149,4.404
620.420,4.489
620.691,4.509
620.962,4.531
621.232,4.617
621.503,4.665
621.774,4.701
622.045,4.712
622.316,4.824
622.586,4.952
622.857,5.108
623.128,5.199
623.398,5.257
623.669,5.281
623.940,5.312
624.210,5.328
624.481,5.419
624.751,5.509
625.021,5.597
625.292,5.614
625.562,5.677
625.833,5.742
626.103,5.819
626.373,5.862
626.643,5.968
626.914,6.109
627.184,6.286
627.454,6.436
627.724,6.557
627.994,6.672
628.264,6.796
628.534,6.900
628.804,6.997
629.074,7.133
629.344,7.292
629.614,7.443
629.884,7.541
630.154,7.630
630.424,7.715
630.693,7.791
630.963,7.854
631.233,7.917
631.502,8.056
631.772,8.281
632.041,8.524
632.311,8.718
632.581,8.870
632.850,9.015
633.119,9.101
633.389,9.170
633.658,9.271
633.928,9.480
634.197,9.748
634.466,10.025
634.735,10.283
635.004,10.458
635.274,10.617
635.543,10.774
635.812,10.969
636.081,11.180
636.350,11.392
636.619,11.619
636.888,11.830
637.157,12.034
637.426,12.264
637.694,12.498
637.963,12.712
638.232,12.923
638.501,13.124
638.769,13.384
639.038,13.670
639.307,14.012
639.575,14.357
639.844,14.621
640.112,14.852
640.381,15.062
640.649,15.351
640.917,15.706
641.186,16.067
641.454,16.462
641.722,16.839
641.991,17.240
642.259,17.592
642.527,17.958
642.795,18.372
643.063,18.775
643.331,19.187
643.599,19.590
643.867,20.090
644.135,20.592
644.403,21.126
644.671,21.595
644.939,22.097
645.206,22.594
645.474,23.161
645.742,23.714
646.009,24.252
646.277,24.841
646.545,25.495
646.812,26.253
647.080,27.015
647.347,27.778
647.615,28.477
647.882,29.108
648.149,29.714
648.417,30.352
648.684,31.063
648.951,31.832
649.219,32.593
649.486,33.318
649.753,34.021
650.020,34.693
650.287,35.353
650.554,35.964
650.821,36.574
651.088,37.150
651.355,37.796
651.622,38.435
651.889,39.108
652.155,39.728
652.422,40.359
652.689,41.010
652.956,41.662
653.222,42.324
653.489,43.035
653.755,43.720
654.022,44.319
654.288,44.840
654.555,45.408
654.821,46.097
655.088,46.857
655.354,47.641
655.620,48.457
655.887,49.249
656.153,50.026
656.419,50.755
656.685,51.482
656.951,52.231
657.217,53.002
657.483,53.798
657.749,54.609
658.015,55.457
658.281,56.286
658.547,57.045
658.813,57.698
659.079,58.269
659.345,58.745
659.610,59.146
659.876,59.461
660.142,59.701
660.407,59.835
660.673,59.853
660.939,59.763
661.204,59.496
661.470,59.067
661.735,58.451
662.000,57.691
662.266,56.733
662.531,55.569
662.796,54.218
663.062,52.704
663.327,51.058
663.592,49.340
663.857,47.547
664.122,45.653
664.388,43.645
664.653,41.595
664.918,39.596
665.183,37.623
665.448,35.725
665.712,33.881
665.977,32.138
666.242,30.462
666.507,28.790
666.772,27.229
667.037,25.784
667.301,24.548
667.566,23.408
667.831,22.379
668.095,21.409
668.360,20.532
668.624,19.675
668.889,18.950
669.153,18.261
669.418,17.641
669.682,17.048
669.946,16.521
670.211,16.088
670.475,15.642
670.739,15.208
671.004,14.782
671.268,14.430
671.532,14.123
671.796,13.636
672.060,13.098
672.324,12.526
672.588,12.129
672.852,11.781
673.116,11.556
673.380,11.370
673.644,10.913
673.908,10.323
674.172,9.700
674.436,9.358
674.700,9.068
674.963,8.792
675.227,8.494
675.491,8.135
675.754,7.788
676.018,7.456
676.282,7.201
676.545,6.936
676.809,6.641
677.072,6.335
677.336,6.045
677.599,5.830
677.863,5.621
678.126,5.449
678.389,5.323
678.653,5.207
678.916,5.043
679.179,4.787
679.442,4.568
679.706,4.429
679.969,4.319
680.232,4.218
680.495,4.130
680.758,4.065
681.021,3.947
681.284,3.778
681.547,3.611
681.810,3.531
682.073,3.528
682.336,3.517
682.599,3.442
682.862,3.333
683.125,3.260
683.388,3.230
683.651,3.182
683.913,3.113
684.176,2.984
684.439,2.852
684.702,2.719
684.964,2.646
685.227,2.625
685.490,2.660
685.752,2.736
686.015,2.757
686.277,2.718
686.540,2.628
686.802,2.535
687.065,2.504
687.327,2.504
687.590,2.521
687.852,2.484
688.115,2.407
688.377,2.355
688.639,2.340
688.902,2.351
689.164,2.377
689.426,2.432
689.689,2.483
689.951,2.477
690.213,2.443
690.475,2.417
690.737,2.400
691.000,2.363
691.262,2.335
691.524,2.350
691.786,2.402
692.048,2.454
692.310,2.442
692.572,2.349
692.834,2.237
693.096,2.192
693.358,2.246
693.620,2.338
693.882,2.415
694.144,2.433
694.406,2.387
694.668,2.334
694.930,2.284
695.192,2.261
695.453,2.271
695.715,2.291
695.977,2.287
696.239,2.234
696.501,2.199
696.762,2.220
697.024,2.251
697.286,2.227
697.548,2.189
697.809,2.166
698.071,2.161
698.333,2.153
698.594,2.148
698.856,2.179
699.118,2.209
699.379,2.236
699.641,2.271
699.902,2.316
700.164,2.328
700.426,2.301
700.687,2.243
700.949,2.221
701.210,2.208
701.472,2.194
701.733,2.162
701.995,2.161
702.256,2.171
702.518,2.181
702.779,2.166
703.041,2.215
703.302,2.292
703.563,2.313
703.825,2.261
704.086,2.197
704.348,2.184
704.609,2.210
704.871,2.272
705.132,2.340
705.393,2.330
705.655,2.292
705.916,2.270
706.177,2.287
706.439,2.312
706.700,2.327
706.961,2.342
707.223,2.361
707.484,2.308
707.745,2.259
708.007,2.212
708.268,2.181
708.529,2.145
708.790,2.072
709.052,2.044
709.313,2.073
709.574,2.142
709.835,2.197
710.097,2.193
710.358,2.122
710.619,2.052
710.881,1.987
711.142,1.971
711.403,1.943
711.664,1.953
711.926,1.925
712.187,1.947
712.448,1.975
712.709,2.047
712.970,2.107
713.232,2.147
713.493,2.168
713.754,2.175
714.015,2.186
714.277,2.224
714.538,2.270
714.799,2.341
715.060,2.372
715.322,2.371
715.583,2.317
715.844,2.263
716.105,2.204
716.367,2.159
716.628,2.147
716.889,2.156
717.150,2.140
717.411,2.099
717.673,2.098
717.934,2.135
718.195,2.182
718.457,2.163
718.718,2.100
718.979,2.058
719.240,2.070
719.502,2.126
719.763,2.174
720.024,2.200
720.286,2.211
720.547,2.179
720.808,2.138
721.069,2.111
721.331,2.139
721.592,2.208
721.853,2.250
722.115,2.265
722.376,2.269
722.638,2.258
722.899,2.251
723.160,2.209
723.422,2.165
723.683,2.128
723.944,2.147
724.206,2.171
724.467,2.180
724.729,2.162
724.990,2.186
725.252,2.222
725.513,2.200
725.775,2.124
726.036,2.057
726.298,2.044
726.559,2.081
726.821,2.092
727.082,2.104
727.344,2.092
727.605,2.104
727.867,2.084
728.128,2.095
728.390,2.099
728.652,2.148
728.913,2.219
729.175,2.273
729.436,2.283
729.698,2.285
729.960,2.261
730.221,2.234
730.483,2.148
730.745,2.110
731.007,2.100
731.268,2.108
731.530,2.122
731.792,2.136
732.054,2.171
732.315,2.197
732.577,2.222
732.839,2.193
733.101,2.144
733.363,2.100
733.625,2.091
733.887,2.112
734.149,2.128
734.411,2.171
734.673,2.204
734.935,2.222
735.197,2.198
735.459,2.200
735.721,2.212
735.983,2.208
736.245,2.139
736.507,2.117
736.769,2.145
737.031,2.198
737.293,2.182
737.555,2.118
737.818,2.065
738.080,2.028
738.342,2.035
738.604,2.041
738.867,2.059
739.129,2.060
739.391,2.055
739.654,2.056
739.916,2.069
740.178,2.104
740.441,2.158
740.703,2.186
740.966,2.167
741.228,2.133
741.491,2.101
741.753,2.114
742.016,2.117
742.278,2.124
742.541,2.128
742.804,2.144
743.066,2.184
743.329,2.209
743.592,2.194
743.854,2.186
744.117,2.200
744.380,2.233
744.643,2.221
744.905,2.174
745.168,2.148
745.431,2.131
745.694,2.114
745.957,2.090
746.220,2.072
746.483,2.060
746.746,2.058
747.009,2.100
747.272,2.197
747.535,2.286
747.798,2.315
748.061,2.256
748.324,2.162
748.588,2.090
748.851,2.075
749.114,2.080
749.377,2.113
749.641,2.122
749.904,2.156
750.167,2.203
750.431,2.248
750.694,2.289
750.958,2.299
751.221,2.269
751.485,2.172
751.748,2.104
752.012,2.106
752.275,2.208
752.539,2.262
752.803,2.250
753.066,2.177
753.330,2.117
753.594,2.101
753.857,2.099
754.121,2.135
754.385,2.181
754.649,2.226
754.913,2.243
755.177,2.273
755.441,2.248
755.705,2.193
755.969,2.106
756.233,2.118
756.497,2.155
756.761,2.174
757.025,2.137
757.289,2.110
757.553,2.104
757.818,2.128
758.082,2.154
758.346,2.168
758.610,2.177
758.875,2.175
759.139,2.175
759.404,2.158
759.668,2.138
759.932,2.147
760.197,2.187
760.462,2.211
760.726,2.207
760.991,2.193
761.255,2.196
761.520,2.200
761.785,2.173
762.049,2.103
762.314,2.046
762.579,2.052
762.844,2.122
763.109,2.184
763.374,2.187
763.639,2.163
763.903,2.128
764.168,2.103
764.433,2.091
764.699,2.145
764.964,2.196
765.229,2.204
765.494,2.145
765.759,2.099
766.024,2.080
766.290,2.106
766.555,2.150
766.820,2.187
767.086,2.216
767.351,2.223
767.616,2.221
767.882,2.196
768.147,2.167
768.413,2.138
768.678,2.101
768.944,2.093
769.209,2.124
769.475,2.188
769.741,2.241
770.006,2.288
770.272,2.317
770.538,2.320
770.804,2.291
771.070,2.269
771.335,2.286
771.601,2.333
771.867,2.355
772.133,2.333
772.399,2.295
772.665,2.220
772.931,2.194
773.197,2.225
773.464,2.295
773.730,2.354
773.996,2.348
774.262,2.354
774.528,2.330
774.795,2.334
775.061,2.356
775.327,2.369
775.594,2.331
775.860,2.253
776.126,2.151
776.393,2.080
776.659,2.044
776.926,2.033
777.193,2.044
777.459,2.068
777.726,2.073
777.992,2.077
778.259,2.042
778.526,2.063
778.793,2.084
779.059,2.128
779.326,2.175
779.593,2.208
779.860,2.257
780.127,2.264
780.394,2.261
780.661,2.248
780.928,2.218
781.195,2.181
781.462,2.135
781.729,2.132
781.996,2.146
782.263,2.160
782.530,2.198
782.797,2.233
783.064,2.209
783.332,2.158
783.599,2.098
783.866,2.108
784.134,2.108
784.401,2.119
784.668,2.122
784.936,2.137
785.203,2.131
785.470,2.086
785.738,2.053
786.005,2.042
786.273,2.045
786.541,2.025
786.808,2.032
787.076,2.055
787.343,2.098
787.611,2.136
787.879,2.205
788.146,2.220
788.414,2.248
788.682,2.215
788.950,2.210
789.217,2.204
789.485,2.252
789.753,2.300
790.021,2.266
790.289,2.171
790.557,2.058
790.825,2.010
791.093,2.037
791.361,2.128
791.629,2.212
791.897,2.264
792.165,2.253
792.433,2.224
792.701,2.135
792.969,2.056
793.237,1.993
793.505,2.025
793.773,2.095
794.042,2.123
794.310,2.108
794.578,2.084
794.846,2.083
795.115,2.092
795.383,2.099
795.651,2.144
795.920,2.177
796.188,2.177
796.456,2.189
796.725,2.199
796.993,2.249
797.261,2.268
797.530,2.259
797.798,2.228
798.067,2.232
798.335,2.273
798.604,2.277
798.872,2.205
799.141,2.124
799.409,2.082
799.678,2.092
799.946,2.126
800.215,2.149
800.483,2.141
800.752,2.131
801.020,2.115
801.289,2.115
801.558,2.111
801.826,2.126
802.095,2.108
802.363,2.105
802.632,2.114
802.901,2.166
803.169,2.203
803.438,2.195
803.707,2.141
803.976,2.065
804.244,2.042
804.513,2.058
804.782,2.056
805.050,2.043
805.319,2.063
805.588,2.123
805.857,2.184
806.125,2.196
806.394,2.183
806.663,2.127
806.931,2.072
807.200,2.035
807.469,2.046
807.738,2.048
808.006,2.050
808.275,2.080
808.544,2.160
808.813,2.232
809.082,2.241
809.350,2.190
809.619,2.151
809.888,2.118
810.157,2.104
810.425,2.087
810.694,2.084
810.963,2.111
811.232,2.105
811.500,2.076
811.769,2.014
812.038,2.013
812.306,2.054
812.575,2.136
812.844,2.182
813.113,2.204
813.381,2.162
813.650,2.152
813.919,2.174
814.187,2.227
814.456,2.255
814.725,2.264
814.993,2.237
815.262,2.214
815.531,2.190
815.799,2.191
816.068,2.162
816.336,2.103
816.605,2.071
816.873,2.083
817.142,2.135
817.411,2.191
817.679,2.216
817.948,2.259
818.216,2.320
818.485,2.466
818.753,2.596
819.021,2.531
819.290,2.322
819.558,2.139
819.827,2.137
820.095,2.198
820.363,2.227
820.632,2.216
820.900,2.203
821.168,2.205
821.437,2.242
821.705,2.261
821.973,2.273
822.241,2.260
822.509,2.264
822.777,2.227
823.046,2.198
823.314,2.196
823.582,2.230
823.850,2.257
824.118,2.272
824.386,2.262
824.654,2.178
824.922,2.077
825.190,2.001
825.457,2.045
825.725,2.123
825.993,2.145
826.261,2.120
826.529,2.097
826.796,2.107
827.064,2.099
827.332,2.090
827.599,2.112
827.867,2.185
828.134,2.227
828.402,2.188
828.669,2.120
828.937,2.082
829.204,2.136
829.471,2.245
829.739,2.313
830.006,2.331
830.273,2.271
830.540,2.204
830.807,2.113
831.075,2.082
831.342,2.118
831.609,2.159
831.876,2.193
832.142,2.206
832.409,2.232
832.676,2.217
832.943,2.151
833.210,2.090
833.476,2.062
833.743,2.087
834.010,2.117
834.276,2.096
834.543,2.054
834.809,2.054
835.076,2.093
835.342,2.122
835.608,2.173
835.874,2.236
836.141,2.249
836.407,2.216
836.673,2.146
836.939,2.130
837.205,2.110
837.471,2.110
837.737,2.115
838.002,2.122
838.268,2.113
838.534,2.132
838.799,2.131
839.065,2.171
839.330,2.184
839.596,2.202
839.861,2.215
840.127,2.242
840.392,2.270
840.657,2.280
840.922,2.304
841.187,2.339
841.452,2.340
841.717,2.330
841.982,2.282
842.247,2.216
842.511,2.151
842.776,2.138
843.041,2.167
843.305,2.156
843.570,2.124
843.834,2.104
844.098,2.091
844.362,2.097
844.627,2.080
844.891,2.085
845.155,2.098
845.419,2.137
845.682,2.170
845.946,2.181
846.210,2.200
846.474,2.198
846.737,2.208
847.001,2.192
847.264,2.137
847.527,2.100
847.790,2.078
848.054,2.094
848.317,2.060
848.580,2.035
848.843,2.033
849.105,2.111
849.368,2.207
849.631,2.271
849.893,2.298
850.156,2.330
850.418,2.345
850.680,2.272
850.943,2.185
851.205,2.169
851.467,2.183
851.729,2.160
851.991,2.128
852.252,2.148
852.514,2.211
852.776,2.244
853.037,2.269
853.298,2.256
853.560,2.204
853.821,2.132
854.082,2.052
854.343,2.060
854.604,2.137
854.865,2.290
855.126,2.383
855.386,2.427
855.647,2.404
855.907,2.358
856.168,2.284
856.428,2.206
856.688,2.174
856.948,2.109
857.208,2.049
857.468,2.024
857.727,2.065
857.987,2.109
858.247,2.140
858.506,2.193
858.765,2.229
859.024,2.188
859.284,2.121
859.543,2.061
859.801,2.050
860.060,2.056
860.319,2.122
860.577,2.200
860.836,2.249
861.094,2.271
861.352,2.268
861.611,2.235
861.869,2.164
862.127,2.118
862.384,2.134
862.642,2.152
862.900,2.205
863.157,2.239
863.414,2.233
863.672,2.164
863.929,2.066
864.186,2.036
864.443,2.062
864.699,2.101
864.956,2.123
865.212,2.074
865.469,2.050
865.725,2.069
865.981,2.143
866.237,2.179
866.493,2.197
866.749,2.150
867.005,2.125
867.260,2.076
867.516,2.046
867.771,2.014
868.026,2.014
868.282,2.088
868.536,2.147
868.791,2.156
869.046,2.092
869.301,2.046
869.555,2.048
869.809,2.116
870.064,2.182
870.318,2.227
870.572,2.261
870.826,2.197
871.079,2.126
871.333,2.062
871.586,2.080
871.840,2.094
872.093,2.085
872.346,2.116
872.599,2.195
872.852,2.293
873.105,2.341
873.357,2.316
873.610,2.237
873.862,2.213
874.114,2.229
874.366,2.265
874.618,2.242
874.870,2.152
875.121,2.058
875.373,2.015
875.624,2.040
875.876,2.069
876.127,2.075
876.378,2.073
876.629,2.066
876.879,2.086
877.130,2.110
877.381,2.099
877.631,2.041
877.881,1.993
878.131,2.035
878.381,2.133
878.631,2.251
878.881,2.310
879.130,2.308
879.380,2.256
879.629,2.200
879.878,2.146
880.127,2.113
880.376,2.119
880.625,2.176
880.873,2.242
881.122,2.283
881.370,2.285
881.618,2.239
881.866,2.182
882.114,2.121
882.362,2.093
882.610,2.113
882.857,2.146
883.105,2.172
883.352,2.120
883.599,2.066
883.846,2.019
884.093,2.015
884.340,2.047
884.586,2.114
884.833,2.169
885.079,2.195
885.325,2.166
885.571,2.154
885.817,2.135
886.063,2.167
886.309,2.184
886.554,2.233
886.800,2.260
887.045,2.282
887.290,2.237
887.535,2.157
887.780,2.111
888.025,2.141
888.270,2.226
888.514,2.320
888.758,2.338
889.003,2.305
889.247,2.180
889.491,2.156
889.735,2.185
889.978,2.269
890.222,2.273
890.465,2.233
890.709,2.177
890.952,2.117
891.195,2.066
891.438,2.049
891.681,2.030
891.923,2.034
892.166,2.052
892.408,2.075
892.651,2.058
892.893,2.017
893.135,1.996
893.377,2.008
893.619,2.034
893.861,2.082
894.102,2.137
894.344,2.227
894.585,2.321
894.826,2.384
895.067,2.336
895.308,2.257
895.549,2.161
895.790,2.106
896.031,2.051
896.271,2.066
896.512,2.141
896.752,2.218
896.992,2.224
897.232,2.167
897.472,2.115
897.712,2.148
897.952,2.236
898.191,2.288
898.431,2.272
898.670,2.271
898.910,2.288
899.149,2.344
899.388,2.374
899.627,2.374
899.866,2.326
900.105,2.243
900.343,2.197
900.582,2.194
900.820,2.227
901.059,2.291
901.297,2.337
901.535,2.281
901.773,2.163
902.011,2.059
902.249,1.992
902.487,1.973
902.725,1.979
902.963,2.045
903.200,2.072
903.438,2.071
903.675,2.079
903.912,2.114
904.150,2.178
904.387,2.203
904.624,2.163
904.861,2.098
905.098,2.043
905.334,2.063
905.571,2.056
905.808,2.065
906.045,2.101
906.281,2.159
906.518,2.182
906.754,2.202
906.990,2.216
907.227,2.223
907.463,2.167
907.699,2.120
907.935,2.124
908.171,2.179
908.407,2.185
908.643,2.173
908.879,2.149
909.115,2.184
909.350,2.216
909.586,2.232
909.822,2.231
910.057,2.269
910.293,2.372
910.528,2.457
910.764,2.442
910.999,2.413
911.235,2.344
911.470,2.351
911.706,2.306
911.941,2.295
912.176,2.254
912.412,2.202
912.647,2.180
912.882,2.193
913.117,2.210
913.352,2.199
913.588,2.150
913.823,2.123
914.058,2.101
914.293,2.111
914.528,2.092
914.763,2.065
914.999,2.043
915.234,2.049
915.469,2.084
915.704,2.099
915.939,2.090
916.174,2.065
916.409,2.059
916.645,2.129
916.880,2.199
917.115,2.250
917.350,2.223
917.586,2.189
917.821,2.175
918.056,2.207
918.292,2.260
918.527,2.261
918.763,2.209
918.998,2.145
919.234,2.178
919.469,2.265
919.705,2.314
919.940,2.289
920.176,2.239
920.412,2.254
920.648,2.261
920.884,2.239
921.120,2.183
921.356,2.145
921.592,2.125
921.828,2.119
922.065,2.129
922.301,2.179
922.537,2.250
922.774,2.293
923.011,2.263
923.247,2.173
923.484,2.146
923.721,2.179
923.958,2.246
924.195,2.251
924.433,2.227
924.670,2.154
924.908,2.077
925.145,2.052
925.383,2.113
925.621,2.189
925.859,2.230
926.097,2.248
926.335,2.247
926.574,2.258
926.813,2.261
927.051,2.260
927.290,2.243
927.529,2.284
927.769,2.373
928.008,2.433
928.248,2.342
928.487,2.233
928.727,2.172
928.967,2.241
929.208,2.300
929.448,2.308
929.689,2.255
929.930,2.179
930.171,2.112
930.413,2.079
930.654,2.081
930.896,2.051
931.138,2.020
931.380,1.982
931.623,2.024
931.865,2.094
932.108,2.169
932.352,2.220
932.595,2.234
932.839,2.261
933.083,2.241
933.327,2.210
933.571,2.137
933.816,2.139
934.061,2.169
934.307,2.194
934.552,2.141
934.798,2.108
935.045,2.110
935.291,2.140
935.538,2.156
935.785,2.184
936.033,2.231
936.281,2.271
936.529,2.286
936.777,2.276
937.026,2.227
937.275,2.184
937.525,2.130
937.775,2.088
938.025,2.055
938.276,2.038
938.527,2.043
938.778,2.042
939.030,2.031
939.282,2.027
939.535,2.042
939.788,2.097
940.041,2.103
940.295,2.075
940.550,2.066
940.804,2.120
941.059,2.192
941.315,2.178
941.571,2.106
941.828,2.050
942.085,2.044
942.342,2.076
942.600,2.084
942.858,2.087
943.117,2.060
943.377,2.036
943.636,2.000
943.897,1.989
944.158,2.009
944.419,2.062
944.681,2.099
944.944,2.133
945.207,2.161
945.470,2.205
945.734,2.234
945.999,2.280
946.264,2.340
946.530,2.369
946.797,2.349
947.064,2.293
947.331,2.252
947.600,2.183
947.869,2.119
948.138,2.058
948.408,2.035
948.679,2.042
948.950,2.080
949.222,2.083
949.495,2.066
949.768,2.059
950.043,2.122
