Wavelength (nm),Intensity Source #5,,Untitled.sp,,,Source #5,
379.792,2.293,,2018-06-12 09:34:52,,Integration Time,186 ms,
380.000,2.292,,Analyze Light,,Number of Scans to Average,25,
380.209,2.292,,,,Smoothing,1,
380.418,2.310
380.627,2.335
380.837,2.358
381.048,2.369
381.259,2.368
381.471,2.362
381.683,2.364
381.896,2.378
382.110,2.388
382.324,2.406
382.538,2.426
382.753,2.452
382.969,2.449
383.185,2.442
383.402,2.433
383.619,2.447
383.837,2.462
384.055,2.488
384.274,2.509
384.493,2.529
384.712,2.538
384.932,2.549
385.153,2.556
385.374,2.571
385.596,2.585
385.818,2.609
386.040,2.633
386.263,2.664
386.487,2.681
386.710,2.690
386.935,2.675
387.159,2.667
387.385,2.657
387.610,2.663
387.836,2.674
388.063,2.697
388.289,2.715
388.517,2.730
388.744,2.733
388.972,2.751
389.201,2.759
389.430,2.774
389.659,2.781
389.889,2.802
390.119,2.818
390.349,2.833
390.580,2.847
390.811,2.858
391.042,2.862
391.274,2.865
391.507,2.872
391.739,2.879
391.972,2.880
392.205,2.890
392.439,2.912
392.673,2.940
392.907,2.960
393.142,2.981
393.377,2.995
393.612,3.016
393.848,3.025
394.084,3.039
394.320,3.043
394.557,3.061
394.794,3.078
395.031,3.104
395.269,3.124
395.507,3.146
395.745,3.154
395.983,3.167
396.222,3.179
396.461,3.210
396.700,3.240
396.940,3.260
397.180,3.264
397.420,3.264
397.660,3.261
397.901,3.262
398.142,3.269
398.383,3.280
398.625,3.286
398.866,3.299
399.108,3.327
399.351,3.373
399.593,3.388
399.836,3.394
400.079,3.386
400.322,3.389
400.566,3.383
400.809,3.386
401.053,3.395
401.298,3.414
401.542,3.431
401.787,3.454
402.031,3.474
402.277,3.495
402.522,3.502
402.767,3.512
403.013,3.510
403.259,3.522
403.505,3.528
403.752,3.542
403.998,3.551
404.245,3.577
404.492,3.601
404.739,3.620
404.986,3.623
405.234,3.634
405.482,3.643
405.730,3.659
405.978,3.673
406.226,3.686
406.475,3.685
406.723,3.688
406.972,3.704
407.221,3.734
407.470,3.753
407.720,3.767
407.969,3.766
408.219,3.779
408.469,3.796
408.719,3.824
408.969,3.838
409.219,3.852
409.470,3.862
409.720,3.882
409.971,3.905
410.222,3.940
410.473,3.956
410.724,3.965
410.976,3.968
411.227,3.987
411.479,3.999
411.731,4.020
411.983,4.031
412.235,4.047
412.487,4.048
412.740,4.060
412.992,4.067
413.245,4.080
413.497,4.087
413.750,4.103
414.003,4.112
414.257,4.123
414.510,4.130
414.763,4.150
415.017,4.167
415.270,4.184
415.524,4.188
415.778,4.195
416.032,4.197
416.286,4.215
416.540,4.228
416.794,4.252
417.049,4.265
417.303,4.287
417.558,4.305
417.812,4.327
418.067,4.333
418.322,4.344
418.577,4.349
418.832,4.363
419.088,4.365
419.343,4.379
419.598,4.377
419.854,4.394
420.109,4.408
420.365,4.449
420.621,4.471
420.876,4.498
421.132,4.508
421.388,4.524
421.645,4.530
421.901,4.548
422.157,4.562
422.413,4.590
422.670,4.608
422.926,4.634
423.183,4.646
423.439,4.683
423.696,4.715
423.953,4.773
424.210,4.822
424.467,4.867
424.724,4.891
424.981,4.903
425.238,4.920
425.495,4.961
425.753,5.009
426.010,5.063
426.267,5.103
426.525,5.166
426.782,5.225
427.040,5.293
427.298,5.357
427.555,5.438
427.813,5.508
428.071,5.583
428.329,5.656
428.587,5.740
428.845,5.817
429.103,5.901
429.361,5.985
429.619,6.084
429.878,6.181
430.136,6.299
430.394,6.411
430.653,6.550
430.911,6.691
431.170,6.845
431.428,6.979
431.687,7.117
431.946,7.252
432.204,7.407
432.463,7.571
432.722,7.752
432.981,7.931
433.240,8.120
433.499,8.315
433.758,8.530
434.017,8.736
434.276,8.947
434.535,9.164
434.794,9.403
435.053,9.647
435.312,9.898
435.572,10.151
435.831,10.428
436.090,10.728
436.350,11.053
436.609,11.380
436.869,11.702
437.128,12.019
437.388,12.356
437.647,12.709
437.907,13.086
438.166,13.460
438.426,13.847
438.686,14.243
438.946,14.667
439.205,15.107
439.465,15.581
439.725,16.074
439.985,16.587
440.245,17.088
440.505,17.594
440.765,18.089
441.025,18.597
441.285,19.113
441.545,19.660
441.805,20.226
442.065,20.810
442.325,21.422
442.585,22.064
442.846,22.738
443.106,23.448
443.366,24.175
443.626,24.934
443.887,25.707
444.147,26.508
444.407,27.324
444.668,28.175
444.928,29.067
445.189,29.995
445.449,30.959
445.710,31.961
445.970,33.004
446.231,34.094
446.491,35.236
446.752,36.438
447.012,37.671
447.273,38.952
447.534,40.278
447.794,41.657
448.055,43.070
448.316,44.549
448.577,46.096
448.837,47.710
449.098,49.383
449.359,51.104
449.620,52.869
449.881,54.667
450.142,56.502
450.403,58.393
450.664,60.341
450.924,62.349
451.185,64.390
451.446,66.464
451.707,68.559
451.969,70.676
452.230,72.787
452.491,74.883
452.752,76.931
453.013,78.930
453.274,80.858
453.535,82.648
453.796,84.220
454.058,85.534
454.319,86.628
454.580,87.558
454.841,88.386
455.103,89.124
455.364,89.784
455.625,90.364
455.887,90.864
456.148,91.290
456.409,91.623
456.671,91.884
456.932,92.094
457.194,92.248
457.455,92.355
457.716,92.402
457.978,92.415
458.239,92.387
458.501,92.332
458.763,92.225
459.024,92.082
459.286,91.888
459.547,91.656
459.809,91.361
460.071,91.004
460.332,90.589
460.594,90.121
460.856,89.599
461.117,89.010
461.379,88.356
461.641,87.627
461.903,86.810
462.164,85.870
462.426,84.779
462.688,83.534
462.950,82.148
463.212,80.679
463.474,79.160
463.736,77.621
463.998,76.100
464.260,74.644
464.522,73.283
464.784,71.982
465.046,70.720
465.308,69.516
465.570,68.389
465.832,67.325
466.094,66.302
466.356,65.334
466.618,64.393
466.880,63.489
467.142,62.611
467.405,61.802
467.667,61.055
467.929,60.361
468.191,59.688
468.454,59.041
468.716,58.409
468.978,57.794
469.241,57.186
469.503,56.583
469.765,56.013
470.028,55.461
470.290,54.923
470.552,54.388
470.815,53.863
471.077,53.338
471.340,52.802
471.602,52.260
471.865,51.719
472.128,51.186
472.390,50.656
472.653,50.100
472.915,49.526
473.178,48.913
473.441,48.298
473.703,47.668
473.966,47.023
474.229,46.352
474.492,45.646
474.755,44.933
475.017,44.231
475.280,43.559
475.543,42.900
475.806,42.212
476.069,41.502
476.332,40.769
476.595,40.052
476.858,39.329
477.121,38.632
477.384,37.944
477.647,37.296
477.910,36.666
478.173,36.051
478.436,35.442
478.699,34.846
478.962,34.266
479.226,33.700
479.489,33.135
479.752,32.609
480.015,32.098
480.279,31.608
480.542,31.117
480.805,30.641
481.069,30.183
481.332,29.765
481.595,29.384
481.859,29.059
482.122,28.745
482.386,28.430
482.649,28.097
482.913,27.777
483.177,27.475
483.440,27.192
483.704,26.923
483.967,26.682
484.231,26.463
484.495,26.262
484.759,26.069
485.022,25.883
485.286,25.699
485.550,25.515
485.814,25.312
486.078,25.113
486.342,24.941
486.606,24.810
486.869,24.691
487.133,24.579
487.397,24.472
487.662,24.378
487.926,24.262
488.190,24.135
488.454,23.997
488.718,23.884
488.982,23.773
489.246,23.686
489.511,23.584
489.775,23.479
490.039,23.359
490.304,23.248
490.568,23.146
490.832,23.060
491.097,22.985
491.361,22.926
491.626,22.855
491.890,22.777
492.155,22.691
492.419,22.622
492.684,22.560
492.949,22.519
493.213,22.487
493.478,22.489
493.743,22.476
494.008,22.455
494.272,22.419
494.537,22.412
494.802,22.419
495.067,22.449
495.332,22.478
495.597,22.513
495.862,22.535
496.127,22.571
496.392,22.611
496.657,22.655
496.922,22.699
497.187,22.767
497.452,22.865
497.718,22.996
497.983,23.131
498.248,23.251
498.513,23.350
498.779,23.457
499.044,23.564
499.310,23.654
499.575,23.731
499.841,23.830
500.106,23.953
500.372,24.077
500.637,24.210
500.903,24.367
501.168,24.534
501.434,24.687
501.700,24.805
501.966,24.932
502.231,25.065
502.497,25.221
502.763,25.358
503.029,25.497
503.295,25.635
503.561,25.788
503.827,25.938
504.093,26.084
504.359,26.224
504.625,26.392
504.891,26.573
505.157,26.771
505.423,26.937
505.690,27.078
505.956,27.203
506.222,27.349
506.489,27.514
506.755,27.687
507.021,27.855
507.288,28.035
507.554,28.203
507.821,28.379
508.087,28.539
508.354,28.719
508.621,28.875
508.887,29.032
509.154,29.182
509.421,29.359
509.687,29.531
509.954,29.699
510.221,29.847
510.488,30.010
510.755,30.164
511.022,30.322
511.289,30.463
511.556,30.617
511.823,30.762
512.090,30.909
512.357,31.032
512.624,31.170
512.891,31.308
513.159,31.459
513.426,31.599
513.693,31.741
513.960,31.882
514.228,32.018
514.495,32.159
514.763,32.308
515.030,32.448
515.298,32.579
515.565,32.712
515.833,32.862
516.100,32.997
516.368,33.113
516.636,33.198
516.904,33.298
517.171,33.396
517.439,33.522
517.707,33.634
517.975,33.764
518.243,33.883
518.511,34.000
518.779,34.100
519.047,34.218
519.315,34.355
519.583,34.482
519.851,34.575
520.119,34.653
520.387,34.733
520.656,34.824
520.924,34.913
521.192,35.010
521.461,35.113
521.729,35.230
521.997,35.343
522.266,35.443
522.534,35.521
522.803,35.600
523.071,35.685
523.340,35.779
523.609,35.875
523.877,35.982
524.146,36.084
524.415,36.193
524.684,36.294
524.952,36.398
525.221,36.489
525.490,36.596
525.759,36.698
526.028,36.796
526.297,36.861
526.566,36.918
526.835,36.977
527.104,37.048
527.373,37.113
527.642,37.172
527.912,37.233
528.181,37.302
528.450,37.376
528.719,37.446
528.989,37.519
529.258,37.592
529.528,37.654
529.797,37.691
530.067,37.719
530.336,37.745
530.606,37.769
530.875,37.786
531.145,37.803
531.414,37.835
531.684,37.884
531.954,37.934
532.224,37.975
532.493,38.002
532.763,38.035
533.033,38.078
533.303,38.117
533.573,38.154
533.843,38.163
534.113,38.181
534.383,38.184
534.653,38.211
534.923,38.247
535.193,38.295
535.463,38.337
535.733,38.372
536.004,38.392
536.274,38.409
536.544,38.415
536.814,38.442
537.085,38.479
537.355,38.534
537.626,38.575
537.896,38.593
538.166,38.598
538.437,38.612
538.707,38.637
538.978,38.665
539.249,38.708
539.519,38.768
539.790,38.821
540.061,38.859
540.331,38.894
540.602,38.940
540.873,38.971
541.144,38.981
541.414,38.971
541.685,38.978
541.956,38.985
542.227,39.015
542.498,39.047
542.769,39.114
543.040,39.190
543.311,39.277
543.582,39.352
543.853,39.408
544.124,39.444
544.396,39.474
544.667,39.488
544.938,39.495
545.209,39.467
545.480,39.463
545.752,39.459
546.023,39.475
546.294,39.472
546.566,39.461
546.837,39.436
547.109,39.406
547.380,39.374
547.652,39.368
547.923,39.377
548.195,39.413
548.466,39.459
548.738,39.506
549.009,39.530
549.281,39.518
549.553,39.475
549.824,39.424
550.096,39.386
550.368,39.376
550.640,39.389
550.911,39.433
551.183,39.491
551.455,39.554
551.727,39.584
551.999,39.573
552.271,39.525
552.543,39.472
552.815,39.418
553.087,39.381
553.359,39.361
553.631,39.356
553.903,39.343
554.175,39.323
554.447,39.292
554.719,39.261
554.991,39.198
555.263,39.135
555.535,39.068
555.808,39.021
556.080,38.977
556.352,38.951
556.624,38.928
556.897,38.906
557.169,38.869
557.441,38.811
557.714,38.724
557.986,38.637
558.258,38.557
558.531,38.508
558.803,38.460
559.076,38.415
559.348,38.358
559.621,38.301
559.893,38.254
560.166,38.207
560.438,38.153
560.711,38.105
560.983,38.076
561.256,38.065
561.528,38.033
561.801,37.980
562.074,37.917
562.346,37.863
562.619,37.814
562.892,37.760
563.164,37.705
563.437,37.679
563.710,37.667
563.983,37.658
564.255,37.622
564.528,37.611
564.801,37.615
565.074,37.623
565.346,37.593
565.619,37.542
565.892,37.477
566.165,37.406
566.438,37.327
566.711,37.261
566.984,37.204
567.257,37.157
567.529,37.113
567.802,37.083
568.075,37.053
568.348,37.021
568.621,36.984
568.894,36.943
569.167,36.895
569.440,36.838
569.713,36.765
569.986,36.688
570.259,36.590
570.532,36.489
570.805,36.374
571.078,36.260
571.351,36.148
571.625,36.058
571.898,35.979
572.171,35.917
572.444,35.853
572.717,35.800
572.990,35.743
573.263,35.660
573.536,35.541
573.809,35.403
574.083,35.280
574.356,35.184
574.629,35.112
574.902,35.044
575.175,34.978
575.448,34.909
575.721,34.847
575.995,34.797
576.268,34.748
576.541,34.696
576.814,34.613
577.087,34.517
577.361,34.402
577.634,34.287
577.907,34.169
578.180,34.064
578.453,33.973
578.727,33.915
579.000,33.866
579.273,33.827
579.546,33.776
579.820,33.719
580.093,33.650
580.366,33.566
580.639,33.468
580.913,33.384
581.186,33.304
581.459,33.244
581.732,33.171
582.005,33.117
582.279,33.056
582.552,32.991
582.825,32.880
583.098,32.743
583.372,32.610
583.645,32.507
583.918,32.426
584.191,32.360
584.464,32.290
584.738,32.243
585.011,32.197
585.284,32.156
585.557,32.098
585.831,32.009
586.104,31.898
586.377,31.775
586.650,31.663
586.923,31.566
587.196,31.478
587.470,31.411
587.743,31.368
588.016,31.347
588.289,31.325
588.562,31.290
588.835,31.221
589.109,31.120
589.382,30.989
589.655,30.857
589.928,30.738
590.201,30.636
590.474,30.565
590.747,30.512
591.020,30.483
591.293,30.457
591.567,30.420
591.840,30.353
592.113,30.244
592.386,30.105
592.659,29.944
592.932,29.792
593.205,29.665
593.478,29.578
593.751,29.502
594.024,29.436
594.297,29.357
594.570,29.287
594.843,29.231
595.116,29.186
595.389,29.128
595.662,29.039
595.934,28.915
596.207,28.779
596.480,28.633
596.753,28.509
597.026,28.378
597.299,28.263
597.572,28.164
597.844,28.093
598.117,28.013
598.390,27.915
598.663,27.794
598.936,27.668
599.208,27.526
599.481,27.384
599.754,27.241
600.026,27.101
600.299,26.959
600.572,26.833
600.844,26.720
601.117,26.610
601.390,26.495
601.662,26.391
601.935,26.270
602.207,26.129
602.480,25.967
602.752,25.812
603.025,25.646
603.297,25.487
603.570,25.352
603.842,25.264
604.115,25.176
604.387,25.078
604.660,24.946
604.932,24.815
605.204,24.682
605.477,24.561
605.749,24.444
606.021,24.330
606.294,24.207
606.566,24.062
606.838,23.909
607.110,23.763
607.383,23.635
607.655,23.518
607.927,23.415
608.199,23.336
608.471,23.258
608.743,23.164
609.015,23.041
609.287,22.914
609.559,22.784
609.831,22.658
610.103,22.526
610.375,22.399
610.647,22.251
610.919,22.100
611.191,21.942
611.463,21.796
611.735,21.649
612.007,21.505
612.278,21.366
612.550,21.243
612.822,21.129
613.094,21.016
613.365,20.877
613.637,20.733
613.909,20.573
614.180,20.418
614.452,20.246
614.723,20.085
614.995,19.931
615.266,19.805
615.538,19.696
615.809,19.614
616.081,19.521
616.352,19.417
616.623,19.296
616.895,19.171
617.166,19.035
617.437,18.888
617.709,18.733
617.980,18.586
618.251,18.447
618.522,18.339
618.793,18.255
619.065,18.200
619.336,18.128
619.607,18.057
619.878,17.979
620.149,17.911
620.420,17.801
620.691,17.668
620.962,17.533
621.232,17.425
621.503,17.298
621.774,17.166
622.045,17.031
622.316,16.945
622.586,16.875
622.857,16.828
623.128,16.751
623.398,16.671
623.669,16.571
623.940,16.480
624.210,16.376
624.481,16.287
624.751,16.189
625.021,16.090
625.292,15.976
625.562,15.890
625.833,15.802
626.103,15.723
626.373,15.624
626.643,15.545
626.914,15.455
627.184,15.383
627.454,15.314
627.724,15.252
627.994,15.175
628.264,15.084
628.534,14.984
628.804,14.880
629.074,14.785
629.344,14.710
629.614,14.640
629.884,14.570
630.154,14.502
630.424,14.447
630.693,14.393
630.963,14.337
631.233,14.264
631.502,14.185
631.772,14.093
632.041,13.992
632.311,13.870
632.581,13.743
632.850,13.624
633.119,13.513
633.389,13.414
633.658,13.343
633.928,13.305
634.197,13.287
634.466,13.266
634.735,13.240
635.004,13.189
635.274,13.117
635.543,13.022
635.812,12.931
636.081,12.849
636.350,12.776
636.619,12.707
636.888,12.631
637.157,12.551
637.426,12.472
637.694,12.406
637.963,12.345
638.232,12.290
638.501,12.235
638.769,12.194
639.038,12.147
639.307,12.098
639.575,12.031
639.844,11.945
640.112,11.846
640.381,11.744
640.649,11.656
640.917,11.586
641.186,11.522
641.454,11.464
641.722,11.401
641.991,11.343
642.259,11.273
642.527,11.199
642.795,11.126
643.063,11.048
643.331,10.977
643.599,10.910
643.867,10.877
644.135,10.844
644.403,10.811
644.671,10.745
644.939,10.678
645.206,10.605
645.474,10.547
645.742,10.485
646.009,10.421
646.277,10.356
646.545,10.298
646.812,10.255
647.080,10.219
647.347,10.172
647.615,10.108
647.882,10.021
648.149,9.933
648.417,9.846
648.684,9.774
648.951,9.715
649.219,9.667
649.486,9.623
649.753,9.580
650.020,9.522
650.287,9.451
650.554,9.366
650.821,9.284
651.088,9.207
651.355,9.152
651.622,9.094
651.889,9.049
652.155,8.990
652.422,8.946
652.689,8.897
652.956,8.842
653.222,8.778
653.489,8.726
653.755,8.668
654.022,8.593
654.288,8.501
654.555,8.424
654.821,8.366
655.088,8.318
655.354,8.265
655.620,8.220
655.887,8.170
656.153,8.115
656.419,8.048
656.685,7.978
656.951,7.915
657.217,7.848
657.483,7.782
657.749,7.722
658.015,7.669
658.281,7.617
658.547,7.548
658.813,7.481
659.079,7.416
659.345,7.358
659.610,7.295
659.876,7.234
660.142,7.178
660.407,7.126
660.673,7.076
660.939,7.027
661.204,6.975
661.470,6.918
661.735,6.864
662.000,6.819
662.266,6.776
662.531,6.727
662.796,6.673
663.062,6.622
663.327,6.567
663.592,6.520
663.857,6.473
664.122,6.430
664.388,6.382
664.653,6.336
664.918,6.297
665.183,6.252
665.448,6.206
665.712,6.160
665.977,6.119
666.242,6.079
666.507,6.019
666.772,5.962
667.037,5.910
667.301,5.880
667.566,5.844
667.831,5.808
668.095,5.761
668.360,5.719
668.624,5.661
668.889,5.616
669.153,5.572
669.418,5.538
669.682,5.505
669.946,5.475
670.211,5.455
670.475,5.428
670.739,5.400
671.004,5.370
671.268,5.354
671.532,5.349
671.796,5.299
672.060,5.233
672.324,5.155
672.588,5.118
672.852,5.089
673.116,5.083
673.380,5.079
673.644,5.022
673.908,4.939
674.172,4.855
674.436,4.828
674.700,4.807
674.963,4.784
675.227,4.752
675.491,4.709
675.754,4.669
676.018,4.628
676.282,4.597
676.545,4.553
676.809,4.500
677.072,4.440
677.336,4.388
677.599,4.351
677.863,4.318
678.126,4.289
678.389,4.272
678.653,4.260
678.916,4.246
679.179,4.213
679.442,4.180
679.706,4.160
679.969,4.139
680.232,4.116
680.495,4.095
680.758,4.079
681.021,4.054
681.284,4.010
681.547,3.961
681.810,3.926
682.073,3.912
682.336,3.897
682.599,3.873
682.862,3.844
683.125,3.825
683.388,3.807
683.651,3.783
683.913,3.757
684.176,3.723
684.439,3.685
684.702,3.642
684.964,3.610
685.227,3.590
685.490,3.575
685.752,3.570
686.015,3.550
686.277,3.517
686.540,3.475
686.802,3.434
687.065,3.406
687.327,3.389
687.590,3.376
687.852,3.355
688.115,3.324
688.377,3.296
688.639,3.281
688.902,3.268
689.164,3.253
689.426,3.237
689.689,3.222
689.951,3.202
690.213,3.178
690.475,3.154
690.737,3.123
691.000,3.090
691.262,3.059
691.524,3.043
691.786,3.032
692.048,3.022
692.310,2.999
692.572,2.966
692.834,2.931
693.096,2.911
693.358,2.903
693.620,2.902
693.882,2.897
694.144,2.884
694.406,2.859
694.668,2.837
694.930,2.811
695.192,2.782
695.453,2.753
695.715,2.735
695.977,2.718
696.239,2.691
696.501,2.665
696.762,2.655
697.024,2.653
697.286,2.637
697.548,2.619
697.809,2.608
698.071,2.597
698.333,2.581
698.594,2.558
698.856,2.545
699.118,2.530
699.379,2.514
699.641,2.500
699.902,2.487
700.164,2.473
700.426,2.452
700.687,2.426
700.949,2.410
701.210,2.397
701.472,2.383
701.733,2.360
701.995,2.345
702.256,2.331
702.518,2.320
702.779,2.303
703.041,2.302
703.302,2.308
703.563,2.301
703.825,2.277
704.086,2.250
704.348,2.233
704.609,2.225
704.871,2.222
705.132,2.224
705.393,2.208
705.655,2.190
705.916,2.171
706.177,2.166
706.439,2.157
706.700,2.149
706.961,2.140
707.223,2.135
707.484,2.112
707.745,2.085
708.007,2.056
708.268,2.030
708.529,2.005
708.790,1.971
709.052,1.944
709.313,1.926
709.574,1.914
709.835,1.906
710.097,1.891
710.358,1.868
710.619,1.841
710.881,1.817
711.142,1.801
711.403,1.784
711.664,1.773
711.926,1.757
712.187,1.748
712.448,1.742
712.709,1.742
712.970,1.742
713.232,1.740
713.493,1.734
713.754,1.722
714.015,1.711
714.277,1.709
714.538,1.711
714.799,1.717
715.060,1.714
715.322,1.705
715.583,1.684
715.844,1.663
716.105,1.647
716.367,1.636
716.628,1.633
716.889,1.626
717.150,1.611
717.411,1.586
717.673,1.568
717.934,1.560
718.195,1.556
718.457,1.541
718.718,1.521
718.979,1.509
719.240,1.508
719.502,1.515
719.763,1.522
720.024,1.525
720.286,1.521
720.547,1.503
720.808,1.483
721.069,1.470
721.331,1.472
721.592,1.482
721.853,1.485
722.115,1.484
722.376,1.478
722.638,1.468
722.899,1.459
723.160,1.447
723.422,1.438
723.683,1.430
723.944,1.430
724.206,1.430
724.467,1.427
724.729,1.422
724.990,1.427
725.252,1.434
725.513,1.428
725.775,1.412
726.036,1.397
726.298,1.392
726.559,1.395
726.821,1.392
727.082,1.387
727.344,1.380
727.605,1.379
727.867,1.376
728.128,1.375
728.390,1.374
728.652,1.383
728.913,1.397
729.175,1.407
729.436,1.405
729.698,1.402
729.960,1.395
730.221,1.387
730.483,1.371
730.745,1.366
731.007,1.368
731.268,1.372
731.530,1.374
731.792,1.380
732.054,1.386
732.315,1.391
732.577,1.391
732.839,1.381
733.101,1.368
733.363,1.359
733.625,1.358
733.887,1.361
734.149,1.361
734.411,1.364
734.673,1.367
734.935,1.367
735.197,1.362
735.459,1.362
735.721,1.366
735.983,1.366
736.245,1.354
736.507,1.346
736.769,1.349
737.031,1.355
737.293,1.351
737.555,1.337
737.818,1.325
738.080,1.317
738.342,1.318
738.604,1.321
738.867,1.326
739.129,1.327
739.391,1.326
739.654,1.326
739.916,1.331
740.178,1.339
740.441,1.347
740.703,1.346
740.966,1.340
741.228,1.334
741.491,1.333
741.753,1.338
742.016,1.341
742.278,1.345
742.541,1.348
742.804,1.353
743.066,1.361
743.329,1.365
743.592,1.361
743.854,1.354
744.117,1.354
744.380,1.358
744.643,1.356
744.905,1.350
745.168,1.346
745.431,1.343
745.694,1.336
745.957,1.327
746.220,1.318
746.483,1.313
746.746,1.313
747.009,1.325
747.272,1.344
747.535,1.362
747.798,1.366
748.061,1.354
748.324,1.334
748.588,1.324
748.851,1.324
749.114,1.328
749.377,1.332
749.641,1.332
749.904,1.336
750.167,1.343
750.431,1.347
750.694,1.350
750.958,1.349
751.221,1.344
751.485,1.329
751.748,1.317
752.012,1.318
752.275,1.335
752.539,1.341
752.803,1.332
753.066,1.314
753.330,1.305
753.594,1.304
753.857,1.307
754.121,1.315
754.385,1.325
754.649,1.333
754.913,1.336
755.177,1.340
755.441,1.333
755.705,1.318
755.969,1.305
756.233,1.310
756.497,1.320
756.761,1.321
757.025,1.309
757.289,1.303
757.553,1.305
757.818,1.315
758.082,1.319
758.346,1.318
758.610,1.316
758.875,1.313
759.139,1.312
759.404,1.307
759.668,1.303
759.932,1.302
760.197,1.308
760.462,1.311
760.726,1.312
760.991,1.312
761.255,1.314
761.520,1.313
761.785,1.305
762.049,1.292
762.314,1.284
762.579,1.288
762.844,1.297
763.109,1.300
763.374,1.296
763.639,1.289
763.903,1.284
764.168,1.275
764.433,1.271
764.699,1.278
764.964,1.287
765.229,1.287
765.494,1.277
765.759,1.270
766.024,1.270
766.290,1.280
766.555,1.290
766.820,1.297
767.086,1.298
767.351,1.296
767.616,1.292
767.882,1.283
768.147,1.275
768.413,1.267
768.678,1.262
768.944,1.262
769.209,1.268
769.475,1.276
769.741,1.280
770.006,1.285
770.272,1.291
770.538,1.297
770.804,1.298
771.070,1.295
771.335,1.298
771.601,1.305
771.867,1.308
772.133,1.300
772.399,1.291
772.665,1.279
772.931,1.275
773.197,1.280
773.464,1.292
773.730,1.303
773.996,1.306
774.262,1.308
774.528,1.303
774.795,1.301
775.061,1.305
775.327,1.305
775.594,1.296
775.860,1.279
776.126,1.256
776.393,1.240
776.659,1.230
776.926,1.229
777.193,1.232
777.459,1.233
777.726,1.231
777.992,1.229
778.259,1.228
778.526,1.236
778.793,1.243
779.059,1.252
779.326,1.258
779.593,1.262
779.860,1.268
780.127,1.268
780.394,1.268
780.661,1.267
780.928,1.261
781.195,1.252
781.462,1.240
781.729,1.237
781.996,1.241
782.263,1.247
782.530,1.258
782.797,1.263
783.064,1.257
783.332,1.244
783.599,1.233
783.866,1.231
784.134,1.228
784.401,1.228
784.668,1.231
784.936,1.235
785.203,1.232
785.470,1.222
785.738,1.216
786.005,1.216
786.273,1.216
786.541,1.214
786.808,1.216
787.076,1.221
787.343,1.227
787.611,1.233
787.879,1.241
788.146,1.243
788.414,1.245
788.682,1.242
788.950,1.241
789.217,1.239
789.485,1.247
789.753,1.253
790.021,1.248
790.289,1.231
790.557,1.212
790.825,1.204
791.093,1.212
791.361,1.230
791.629,1.245
791.897,1.253
792.165,1.250
792.433,1.241
792.701,1.222
792.969,1.204
793.237,1.193
793.505,1.200
793.773,1.214
794.042,1.217
794.310,1.213
794.578,1.208
794.846,1.210
795.115,1.212
795.383,1.215
795.651,1.223
795.920,1.227
796.188,1.224
796.456,1.223
796.725,1.225
796.993,1.236
797.261,1.240
797.530,1.239
797.798,1.236
798.067,1.241
798.335,1.249
798.604,1.244
798.872,1.228
799.141,1.216
799.409,1.213
799.678,1.220
799.946,1.226
800.215,1.229
800.483,1.225
800.752,1.221
801.020,1.217
801.289,1.217
801.558,1.219
801.826,1.220
802.095,1.215
802.363,1.214
802.632,1.217
802.901,1.227
803.169,1.232
803.438,1.232
803.707,1.224
803.976,1.213
804.244,1.208
804.513,1.207
804.782,1.204
805.050,1.202
805.319,1.208
805.588,1.222
805.857,1.235
806.125,1.238
806.394,1.231
806.663,1.215
806.931,1.201
807.200,1.195
807.469,1.196
807.738,1.198
808.006,1.199
808.275,1.209
808.544,1.225
808.813,1.239
809.082,1.237
809.350,1.226
809.619,1.220
809.888,1.214
810.157,1.206
810.425,1.197
810.694,1.195
810.963,1.201
811.232,1.200
811.500,1.194
811.769,1.185
812.038,1.189
812.306,1.200
812.575,1.212
812.844,1.218
813.113,1.220
813.381,1.215
813.650,1.214
813.919,1.218
814.187,1.226
814.456,1.228
814.725,1.228
814.993,1.223
815.262,1.221
815.531,1.218
815.799,1.218
816.068,1.214
816.336,1.204
816.605,1.200
816.873,1.203
817.142,1.214
817.411,1.223
817.679,1.229
817.948,1.239
818.216,1.254
818.485,1.284
818.753,1.304
819.021,1.285
819.290,1.242
819.558,1.210
819.827,1.213
820.095,1.222
820.363,1.224
820.632,1.222
820.900,1.221
821.168,1.225
821.437,1.231
821.705,1.236
821.973,1.235
822.241,1.235
822.509,1.233
822.777,1.225
823.046,1.215
823.314,1.214
823.582,1.220
823.850,1.227
824.118,1.231
824.386,1.230
824.654,1.215
824.922,1.197
825.190,1.186
825.457,1.194
825.725,1.204
825.993,1.200
826.261,1.192
826.529,1.189
826.796,1.191
827.064,1.192
827.332,1.196
827.599,1.208
827.867,1.225
828.134,1.230
828.402,1.222
828.669,1.210
828.937,1.205
829.204,1.217
829.471,1.234
829.739,1.244
830.006,1.242
830.273,1.231
830.540,1.217
830.807,1.202
831.075,1.198
831.342,1.206
831.609,1.212
831.876,1.217
832.142,1.219
832.409,1.222
832.676,1.214
832.943,1.200
833.210,1.188
833.476,1.189
833.743,1.198
834.010,1.204
834.276,1.197
834.543,1.186
834.809,1.187
835.076,1.196
835.342,1.202
835.608,1.211
835.874,1.221
836.141,1.224
836.407,1.218
836.673,1.208
836.939,1.204
837.205,1.200
837.471,1.198
837.737,1.200
838.002,1.201
838.268,1.203
838.534,1.204
838.799,1.203
839.065,1.206
839.330,1.207
839.596,1.210
839.861,1.212
840.127,1.218
840.392,1.223
840.657,1.229
840.922,1.237
841.187,1.242
841.452,1.240
841.717,1.235
841.982,1.224
842.247,1.209
842.511,1.197
842.776,1.199
843.041,1.204
843.305,1.200
843.570,1.191
843.834,1.187
844.098,1.187
844.362,1.187
844.627,1.183
844.891,1.182
845.155,1.186
845.419,1.197
845.682,1.207
845.946,1.215
846.210,1.218
846.474,1.218
846.737,1.220
847.001,1.216
847.264,1.205
847.527,1.196
847.790,1.192
848.054,1.193
848.317,1.184
848.580,1.178
848.843,1.179
849.105,1.195
849.368,1.211
849.631,1.221
849.893,1.225
850.156,1.233
850.418,1.237
850.680,1.226
850.943,1.215
851.205,1.213
851.467,1.213
851.729,1.205
851.991,1.198
852.252,1.204
852.514,1.213
852.776,1.218
853.037,1.220
853.298,1.217
853.560,1.209
853.821,1.194
854.082,1.181
854.343,1.185
854.604,1.205
854.865,1.235
855.126,1.252
855.386,1.256
855.647,1.249
855.907,1.237
856.168,1.220
856.428,1.206
856.688,1.200
856.948,1.189
857.208,1.179
857.468,1.174
857.727,1.183
857.987,1.194
858.247,1.205
858.506,1.218
858.765,1.222
859.024,1.210
859.284,1.193
859.543,1.180
859.801,1.179
860.060,1.184
860.319,1.200
860.577,1.214
860.836,1.221
861.094,1.222
861.352,1.221
861.611,1.215
861.869,1.204
862.127,1.200
862.384,1.201
862.642,1.206
862.900,1.215
863.157,1.222
863.414,1.218
863.672,1.203
863.929,1.185
864.186,1.181
864.443,1.188
864.699,1.195
864.956,1.197
865.212,1.187
865.469,1.182
865.725,1.185
865.981,1.195
866.237,1.201
866.493,1.203
866.749,1.198
867.005,1.193
867.260,1.181
867.516,1.173
867.771,1.168
868.026,1.174
868.282,1.192
868.536,1.205
868.791,1.205
869.046,1.193
869.301,1.184
869.555,1.183
869.809,1.191
870.064,1.199
870.318,1.209
870.572,1.215
870.826,1.209
871.079,1.197
871.333,1.187
871.586,1.186
871.840,1.186
872.093,1.184
872.346,1.190
872.599,1.205
872.852,1.221
873.105,1.230
873.357,1.225
873.610,1.215
873.862,1.214
874.114,1.218
874.366,1.222
874.618,1.214
874.870,1.196
875.121,1.182
875.373,1.179
875.624,1.188
875.876,1.193
876.127,1.190
876.378,1.182
876.629,1.178
876.879,1.185
877.130,1.196
877.381,1.197
877.631,1.185
877.881,1.175
878.131,1.179
878.381,1.194
878.631,1.215
878.881,1.225
879.130,1.225
879.380,1.219
879.629,1.216
879.878,1.213
880.127,1.207
880.376,1.205
880.625,1.211
880.873,1.222
881.122,1.230
881.370,1.229
881.618,1.218
881.866,1.207
882.114,1.200
882.362,1.201
882.610,1.205
882.857,1.210
883.105,1.210
883.352,1.196
883.599,1.178
883.846,1.163
884.093,1.161
884.340,1.172
884.586,1.187
884.833,1.198
885.079,1.203
885.325,1.202
885.571,1.199
885.817,1.195
886.063,1.199
886.309,1.206
886.554,1.217
886.800,1.226
887.045,1.229
887.290,1.216
887.535,1.197
887.780,1.187
888.025,1.195
888.270,1.215
888.514,1.231
888.758,1.235
889.003,1.227
889.247,1.209
889.491,1.205
889.735,1.211
889.978,1.221
890.222,1.220
890.465,1.212
890.709,1.203
890.952,1.196
891.195,1.187
891.438,1.181
891.681,1.177
891.923,1.180
892.166,1.184
892.408,1.188
892.651,1.186
892.893,1.183
893.135,1.181
893.377,1.181
893.619,1.184
893.861,1.192
894.102,1.204
894.344,1.218
894.585,1.232
894.826,1.240
895.067,1.231
895.308,1.217
895.549,1.199
895.790,1.187
896.031,1.176
896.271,1.181
896.512,1.195
896.752,1.206
896.992,1.203
897.232,1.193
897.472,1.190
897.712,1.205
897.952,1.227
898.191,1.233
898.431,1.228
898.670,1.225
898.910,1.230
899.149,1.239
899.388,1.243
899.627,1.241
899.866,1.231
900.105,1.219
900.343,1.210
900.582,1.209
900.820,1.214
901.059,1.225
901.297,1.230
901.535,1.216
901.773,1.195
902.011,1.177
902.249,1.168
902.487,1.163
902.725,1.164
902.963,1.175
903.200,1.179
903.438,1.178
903.675,1.181
903.912,1.189
904.150,1.204
904.387,1.206
904.624,1.198
904.861,1.183
905.098,1.178
905.334,1.183
905.571,1.183
905.808,1.181
906.045,1.185
906.281,1.194
906.518,1.200
906.754,1.204
906.990,1.209
907.227,1.211
907.463,1.202
907.699,1.194
907.935,1.196
908.171,1.207
908.407,1.207
908.643,1.206
908.879,1.204
909.115,1.214
909.350,1.218
909.586,1.220
909.822,1.221
910.057,1.234
910.293,1.254
910.528,1.266
910.764,1.260
910.999,1.250
911.235,1.239
911.470,1.241
911.706,1.234
911.941,1.228
912.176,1.214
912.412,1.202
912.647,1.198
912.882,1.204
913.117,1.208
913.352,1.207
913.588,1.198
913.823,1.193
914.058,1.192
914.293,1.195
914.528,1.191
914.763,1.186
914.999,1.183
915.234,1.187
915.469,1.194
915.704,1.198
915.939,1.195
916.174,1.188
916.409,1.187
916.645,1.198
916.880,1.209
917.115,1.214
917.350,1.209
917.586,1.205
917.821,1.204
918.056,1.209
918.292,1.214
918.527,1.213
918.763,1.202
918.998,1.195
919.234,1.205
919.469,1.224
919.705,1.232
919.940,1.226
920.176,1.217
920.412,1.221
920.648,1.224
920.884,1.224
921.120,1.216
921.356,1.207
921.592,1.200
921.828,1.195
922.065,1.199
922.301,1.211
922.537,1.223
922.774,1.227
923.011,1.217
923.247,1.205
923.484,1.204
923.721,1.214
923.958,1.222
924.195,1.218
924.433,1.210
924.670,1.197
924.908,1.184
925.145,1.181
925.383,1.190
925.621,1.201
925.859,1.207
926.097,1.210
926.335,1.212
926.574,1.213
926.813,1.217
927.051,1.220
927.290,1.221
927.529,1.231
927.769,1.248
928.008,1.256
928.248,1.239
928.487,1.221
928.727,1.213
928.967,1.226
929.208,1.235
929.448,1.235
929.689,1.224
929.930,1.204
930.171,1.184
930.413,1.176
930.654,1.177
930.896,1.177
931.138,1.173
931.380,1.171
931.623,1.181
931.865,1.196
932.108,1.206
932.352,1.209
932.595,1.210
932.839,1.217
933.083,1.217
933.327,1.208
933.571,1.195
933.816,1.194
934.061,1.200
934.307,1.200
934.552,1.192
934.798,1.189
935.045,1.192
935.291,1.198
935.538,1.200
935.785,1.207
936.033,1.216
936.281,1.224
936.529,1.226
936.777,1.221
937.026,1.212
937.275,1.203
937.525,1.194
937.775,1.188
938.025,1.184
938.276,1.182
938.527,1.180
938.778,1.176
939.030,1.172
939.282,1.171
939.535,1.177
939.788,1.188
940.041,1.187
940.295,1.181
940.550,1.180
940.804,1.189
941.059,1.200
941.315,1.199
941.571,1.189
941.828,1.182
942.085,1.182
942.342,1.186
942.600,1.185
942.858,1.184
943.117,1.179
943.377,1.176
943.636,1.170
943.897,1.167
944.158,1.171
944.419,1.184
944.681,1.195
944.944,1.200
945.207,1.204
945.470,1.210
945.734,1.217
945.999,1.228
946.264,1.237
946.530,1.241
946.797,1.236
947.064,1.228
947.331,1.223
947.600,1.212
947.869,1.198
948.138,1.185
948.408,1.177
948.679,1.178
948.950,1.182
949.222,1.181
949.495,1.179
949.768,1.182
950.043,1.196
