Wavelength (nm),Intensity Source #91,,C:/Users/Brend/Desktop/LED Spectras v2/Spectrometer Data.sp,,,Source #91,
379.792,1.980,,2018-06-14 09:54:12,,Integration Time,183 ms,
380.000,1.980,,Analyze Light,,Number of Scans to Average,25,
380.209,1.981,,,,Smoothing,1,
380.418,1.996
380.627,2.016
380.837,2.037
381.048,2.048
381.259,2.048
381.471,2.046
381.683,2.050
381.896,2.062
382.110,2.070
382.324,2.086
382.538,2.106
382.753,2.122
382.969,2.114
383.185,2.097
383.402,2.082
383.619,2.091
383.837,2.109
384.055,2.138
384.274,2.159
384.493,2.173
384.712,2.176
384.932,2.181
385.153,2.189
385.374,2.202
385.596,2.213
385.818,2.233
386.040,2.255
386.263,2.278
386.487,2.286
386.710,2.283
386.935,2.266
387.159,2.261
387.385,2.257
387.610,2.260
387.836,2.262
388.063,2.271
388.289,2.281
388.517,2.290
388.744,2.293
388.972,2.310
389.201,2.325
389.430,2.341
389.659,2.351
389.889,2.362
390.119,2.371
390.349,2.382
390.580,2.397
390.811,2.408
391.042,2.410
391.274,2.411
391.507,2.418
391.739,2.423
391.972,2.422
392.205,2.428
392.439,2.445
392.673,2.468
392.907,2.487
393.142,2.504
393.377,2.518
393.612,2.536
393.848,2.546
394.084,2.556
394.320,2.557
394.557,2.569
394.794,2.575
395.031,2.588
395.269,2.599
395.507,2.613
395.745,2.619
395.983,2.624
396.222,2.634
396.461,2.659
396.700,2.683
396.940,2.701
397.180,2.706
397.420,2.705
397.660,2.699
397.901,2.692
398.142,2.693
398.383,2.700
398.625,2.706
398.866,2.719
399.108,2.745
399.351,2.786
399.593,2.804
399.836,2.808
400.079,2.791
400.322,2.782
400.566,2.775
400.809,2.778
401.053,2.784
401.298,2.794
401.542,2.805
401.787,2.818
402.031,2.830
402.277,2.849
402.522,2.863
402.767,2.874
403.013,2.870
403.259,2.872
403.505,2.872
403.752,2.881
403.998,2.888
404.245,2.912
404.492,2.934
404.739,2.950
404.986,2.956
405.234,2.966
405.482,2.974
405.730,2.979
405.978,2.985
406.226,2.991
406.475,2.983
406.723,2.978
406.972,2.986
407.221,3.008
407.470,3.021
407.720,3.033
407.969,3.027
408.219,3.042
408.469,3.057
408.719,3.080
408.969,3.088
409.219,3.103
409.470,3.119
409.720,3.143
409.971,3.161
410.222,3.184
410.473,3.189
410.724,3.186
410.976,3.186
411.227,3.202
411.479,3.212
411.731,3.219
411.983,3.212
412.235,3.215
412.487,3.214
412.740,3.225
412.992,3.232
413.245,3.245
413.497,3.248
413.750,3.252
414.003,3.247
414.257,3.247
414.510,3.249
414.763,3.265
415.017,3.277
415.270,3.285
415.524,3.282
415.778,3.282
416.032,3.284
416.286,3.299
416.540,3.308
416.794,3.317
417.049,3.315
417.303,3.317
417.558,3.318
417.812,3.320
418.067,3.320
418.322,3.324
418.577,3.320
418.832,3.316
419.088,3.299
419.343,3.299
419.598,3.293
419.854,3.300
420.109,3.306
420.365,3.331
420.621,3.340
420.876,3.348
421.132,3.342
421.388,3.342
421.645,3.337
421.901,3.341
422.157,3.346
422.413,3.362
422.670,3.370
422.926,3.377
423.183,3.371
423.439,3.383
423.696,3.399
423.953,3.440
424.210,3.477
424.467,3.506
424.724,3.510
424.981,3.502
425.238,3.504
425.495,3.532
425.753,3.566
426.010,3.598
426.267,3.619
426.525,3.662
426.782,3.707
427.040,3.759
427.298,3.808
427.555,3.871
427.813,3.929
428.071,3.985
428.329,4.034
428.587,4.093
428.845,4.157
429.103,4.238
429.361,4.323
429.619,4.412
429.878,4.501
430.136,4.610
430.394,4.719
430.653,4.849
430.911,4.978
431.170,5.121
431.428,5.247
431.687,5.376
431.946,5.501
432.204,5.643
432.463,5.791
432.722,5.950
432.981,6.117
433.240,6.310
433.499,6.513
433.758,6.731
434.017,6.929
434.276,7.139
434.535,7.349
434.794,7.589
435.053,7.839
435.312,8.104
435.572,8.358
435.831,8.628
436.090,8.919
436.350,9.245
436.609,9.581
436.869,9.919
437.128,10.254
437.388,10.601
437.647,10.964
437.907,11.353
438.166,11.748
438.426,12.162
438.686,12.586
438.946,13.034
439.205,13.500
439.465,14.005
439.725,14.533
439.985,15.093
440.245,15.642
440.505,16.209
440.765,16.782
441.025,17.379
441.285,17.999
441.545,18.650
441.805,19.323
442.065,20.034
442.325,20.761
442.585,21.548
442.846,22.356
443.106,23.234
443.366,24.160
443.626,25.127
443.887,26.117
444.147,27.129
444.407,28.186
444.668,29.299
444.928,30.468
445.189,31.715
445.449,33.009
445.710,34.350
445.970,35.729
446.231,37.186
446.491,38.719
446.752,40.308
447.012,41.944
447.273,43.652
447.534,45.416
447.794,47.222
448.055,49.062
448.316,50.978
448.577,52.981
448.837,55.039
449.098,57.147
449.359,59.277
449.620,61.406
449.881,63.529
450.142,65.654
450.403,67.814
450.664,70.000
450.924,72.176
451.185,74.343
451.446,76.485
451.707,78.600
451.969,80.638
452.230,82.513
452.491,84.164
452.752,85.543
453.013,86.682
453.274,87.627
453.535,88.442
453.796,89.146
454.058,89.764
454.319,90.306
454.580,90.775
454.841,91.162
455.103,91.459
455.364,91.684
455.625,91.856
455.887,91.975
456.148,92.044
456.409,92.062
456.671,92.026
456.932,91.940
457.194,91.802
457.455,91.623
457.716,91.398
457.978,91.126
458.239,90.784
458.501,90.378
458.763,89.900
459.024,89.352
459.286,88.728
459.547,88.012
459.809,87.191
460.071,86.220
460.332,85.070
460.594,83.707
460.856,82.173
461.117,80.513
461.379,78.795
461.641,77.046
461.903,75.281
462.164,73.519
462.426,71.767
462.688,70.064
462.950,68.405
463.212,66.791
463.474,65.199
463.736,63.642
463.998,62.133
464.260,60.708
464.522,59.376
464.784,58.112
465.046,56.902
465.308,55.753
465.570,54.679
465.832,53.657
466.094,52.676
466.356,51.730
466.618,50.831
466.880,49.956
467.142,49.101
467.405,48.274
467.667,47.493
467.929,46.757
468.191,46.042
468.454,45.319
468.716,44.588
468.978,43.821
469.241,43.042
469.503,42.273
469.765,41.545
470.028,40.836
470.290,40.134
470.552,39.427
470.815,38.728
471.077,38.019
471.340,37.313
471.602,36.602
471.865,35.891
472.128,35.166
472.390,34.453
472.653,33.736
472.915,33.019
473.178,32.297
473.441,31.569
473.703,30.836
473.966,30.082
474.229,29.324
474.492,28.579
474.755,27.839
475.017,27.112
475.280,26.395
475.543,25.706
475.806,25.013
476.069,24.326
476.332,23.641
476.595,23.001
476.858,22.361
477.121,21.727
477.384,21.099
477.647,20.507
477.910,19.953
478.173,19.416
478.436,18.879
478.699,18.369
478.962,17.883
479.226,17.434
479.489,16.982
479.752,16.553
480.015,16.133
480.279,15.724
480.542,15.316
480.805,14.922
481.069,14.542
481.332,14.169
481.595,13.813
481.859,13.500
482.122,13.195
482.386,12.892
482.649,12.575
482.913,12.271
483.177,11.967
483.440,11.671
483.704,11.399
483.967,11.162
484.231,10.935
484.495,10.711
484.759,10.477
485.022,10.246
485.286,10.009
485.550,9.776
485.814,9.523
486.078,9.284
486.342,9.046
486.606,8.845
486.869,8.644
487.133,8.465
487.397,8.291
487.662,8.122
487.926,7.929
488.190,7.732
488.454,7.524
488.718,7.335
488.982,7.139
489.246,6.960
489.511,6.770
489.775,6.588
490.039,6.409
490.304,6.241
490.568,6.068
490.832,5.905
491.097,5.751
491.361,5.614
491.626,5.471
491.890,5.333
492.155,5.191
492.419,5.065
492.684,4.924
492.949,4.784
493.213,4.647
493.478,4.537
493.743,4.426
494.008,4.299
494.272,4.162
494.537,4.048
494.802,3.952
495.067,3.875
495.332,3.797
495.597,3.726
495.862,3.639
496.127,3.558
496.392,3.470
496.657,3.388
496.922,3.300
497.187,3.232
497.452,3.176
497.718,3.140
497.983,3.087
498.248,3.029
498.513,2.957
498.779,2.911
499.044,2.871
499.310,2.825
499.575,2.761
499.841,2.705
500.106,2.662
500.372,2.621
500.637,2.585
500.903,2.564
501.168,2.543
501.434,2.510
501.700,2.458
501.966,2.416
502.231,2.376
502.497,2.343
502.763,2.302
503.029,2.267
503.295,2.239
503.561,2.219
503.827,2.204
504.093,2.188
504.359,2.170
504.625,2.153
504.891,2.129
505.157,2.111
505.423,2.079
505.690,2.046
505.956,2.012
506.222,1.995
506.489,1.999
506.755,2.011
507.021,2.016
507.288,2.014
507.554,1.992
507.821,1.970
508.087,1.949
508.354,1.950
508.621,1.943
508.887,1.927
509.154,1.903
509.421,1.888
509.687,1.870
509.954,1.848
510.221,1.826
510.488,1.819
510.755,1.820
511.022,1.824
511.289,1.812
511.556,1.797
511.823,1.787
512.090,1.793
512.357,1.794
512.624,1.790
512.891,1.774
513.159,1.757
513.426,1.740
513.693,1.729
513.960,1.723
514.228,1.723
514.495,1.724
514.763,1.723
515.030,1.712
515.298,1.697
515.565,1.688
515.833,1.682
516.100,1.678
516.368,1.676
516.636,1.672
516.904,1.674
517.171,1.665
517.439,1.660
517.707,1.648
517.975,1.643
518.243,1.642
518.511,1.641
518.779,1.627
519.047,1.620
519.315,1.617
519.583,1.613
519.851,1.594
520.119,1.581
520.387,1.577
520.656,1.576
520.924,1.577
521.192,1.585
521.461,1.594
521.729,1.600
521.997,1.603
522.266,1.604
522.534,1.599
522.803,1.592
523.071,1.584
523.340,1.570
523.609,1.553
523.877,1.542
524.146,1.541
524.415,1.549
524.684,1.554
524.952,1.551
525.221,1.549
525.490,1.560
525.759,1.576
526.028,1.578
526.297,1.552
526.566,1.527
526.835,1.509
527.104,1.509
527.373,1.518
527.642,1.523
527.912,1.517
528.181,1.507
528.450,1.503
528.719,1.512
528.989,1.530
529.258,1.551
529.528,1.558
529.797,1.550
530.067,1.543
530.336,1.537
530.606,1.529
530.875,1.511
531.145,1.501
531.414,1.504
531.684,1.519
531.954,1.521
532.224,1.509
532.493,1.481
532.763,1.470
533.033,1.474
533.303,1.486
533.573,1.493
533.843,1.485
534.113,1.475
534.383,1.463
534.653,1.464
534.923,1.472
535.193,1.481
535.463,1.496
535.733,1.509
536.004,1.520
536.274,1.519
536.544,1.505
536.814,1.486
537.085,1.470
537.355,1.472
537.626,1.490
537.896,1.507
538.166,1.514
538.437,1.509
538.707,1.499
538.978,1.498
539.249,1.513
539.519,1.527
539.790,1.523
540.061,1.513
540.331,1.521
540.602,1.544
540.873,1.561
541.144,1.567
541.414,1.559
541.685,1.550
541.956,1.534
542.227,1.522
542.498,1.507
542.769,1.500
543.040,1.508
543.311,1.523
543.582,1.543
543.853,1.555
544.124,1.565
544.396,1.574
544.667,1.577
544.938,1.571
545.209,1.538
545.480,1.515
545.752,1.502
546.023,1.511
546.294,1.508
546.566,1.496
546.837,1.481
547.109,1.475
547.380,1.470
547.652,1.465
547.923,1.462
548.195,1.470
548.466,1.490
548.738,1.511
549.009,1.512
549.281,1.502
549.553,1.479
549.824,1.456
550.096,1.441
550.368,1.440
550.640,1.447
550.911,1.455
551.183,1.469
551.455,1.495
551.727,1.509
551.999,1.501
552.271,1.479
552.543,1.460
552.815,1.456
553.087,1.464
553.359,1.474
553.631,1.481
553.903,1.481
554.175,1.482
554.447,1.490
554.719,1.488
554.991,1.487
555.263,1.481
555.535,1.476
555.808,1.467
556.080,1.457
556.352,1.452
556.624,1.451
556.897,1.449
557.169,1.447
557.441,1.439
557.714,1.431
557.986,1.425
558.258,1.417
558.531,1.424
558.803,1.435
559.076,1.451
559.348,1.450
559.621,1.441
559.893,1.437
560.166,1.438
560.438,1.437
560.711,1.431
560.983,1.427
561.256,1.430
561.528,1.439
561.801,1.452
562.074,1.463
562.346,1.474
562.619,1.482
562.892,1.482
563.164,1.473
563.437,1.468
563.710,1.465
563.983,1.453
564.255,1.437
564.528,1.438
564.801,1.454
565.074,1.465
565.346,1.459
565.619,1.453
565.892,1.456
566.165,1.454
566.438,1.437
566.711,1.417
566.984,1.412
567.257,1.418
567.529,1.429
567.802,1.445
568.075,1.459
568.348,1.459
568.621,1.454
568.894,1.445
569.167,1.442
569.440,1.434
569.713,1.421
569.986,1.414
570.259,1.411
570.532,1.423
570.805,1.427
571.078,1.429
571.351,1.428
571.625,1.430
571.898,1.432
572.171,1.424
572.444,1.416
572.717,1.417
572.990,1.430
573.263,1.431
573.536,1.421
573.809,1.402
574.083,1.392
574.356,1.398
574.629,1.420
574.902,1.436
575.175,1.433
575.448,1.416
575.721,1.407
575.995,1.407
576.268,1.409
576.541,1.417
576.814,1.428
577.087,1.441
577.361,1.443
577.634,1.437
577.907,1.423
578.180,1.408
578.453,1.400
578.727,1.406
579.000,1.411
579.273,1.419
579.546,1.431
579.820,1.446
580.093,1.452
580.366,1.444
580.639,1.427
580.913,1.417
581.186,1.414
581.459,1.413
581.732,1.405
582.005,1.398
582.279,1.391
582.552,1.395
582.825,1.400
583.098,1.409
583.372,1.415
583.645,1.421
583.918,1.427
584.191,1.429
584.464,1.425
584.738,1.419
585.011,1.414
585.284,1.411
585.557,1.409
585.831,1.412
586.104,1.427
586.377,1.449
586.650,1.463
586.923,1.462
587.196,1.449
587.470,1.434
587.743,1.426
588.016,1.423
588.289,1.428
588.562,1.438
588.835,1.437
589.109,1.429
589.382,1.415
589.655,1.406
589.928,1.398
590.201,1.395
590.474,1.403
590.747,1.417
591.020,1.431
591.293,1.439
591.567,1.437
591.840,1.426
592.113,1.414
592.386,1.398
592.659,1.387
592.932,1.385
593.205,1.397
593.478,1.408
593.751,1.411
594.024,1.410
594.297,1.404
594.570,1.402
594.843,1.405
595.116,1.412
595.389,1.416
595.662,1.409
595.934,1.407
596.207,1.412
596.480,1.426
596.753,1.439
597.026,1.439
597.299,1.436
597.572,1.431
597.844,1.425
598.117,1.413
598.390,1.402
598.663,1.400
598.936,1.407
599.208,1.411
599.481,1.416
599.754,1.416
600.026,1.406
600.299,1.393
600.572,1.384
600.844,1.381
601.117,1.373
601.390,1.368
601.662,1.369
601.935,1.371
602.207,1.376
602.480,1.382
602.752,1.385
603.025,1.379
603.297,1.374
603.570,1.382
603.842,1.403
604.115,1.420
604.387,1.427
604.660,1.418
604.932,1.410
605.204,1.411
605.477,1.426
605.749,1.444
606.021,1.454
606.294,1.455
606.566,1.443
606.838,1.437
607.110,1.436
607.383,1.444
607.655,1.449
607.927,1.457
608.199,1.464
608.471,1.467
608.743,1.459
609.015,1.451
609.287,1.445
609.559,1.446
609.831,1.451
610.103,1.452
610.375,1.445
610.647,1.432
610.919,1.424
611.191,1.425
611.463,1.429
611.735,1.426
612.007,1.418
612.278,1.410
612.550,1.408
612.822,1.417
613.094,1.427
613.365,1.434
613.637,1.438
613.909,1.433
614.180,1.425
614.452,1.413
614.723,1.406
614.995,1.401
615.266,1.404
615.538,1.417
615.809,1.432
616.081,1.433
616.352,1.424
616.623,1.412
616.895,1.407
617.166,1.399
617.437,1.392
617.709,1.392
617.980,1.398
618.251,1.409
618.522,1.418
618.793,1.435
619.065,1.451
619.336,1.451
619.607,1.438
619.878,1.427
620.149,1.431
620.420,1.432
620.691,1.428
620.962,1.427
621.232,1.431
621.503,1.426
621.774,1.418
622.045,1.413
622.316,1.422
622.586,1.434
622.857,1.444
623.128,1.444
623.398,1.439
623.669,1.428
623.940,1.417
624.210,1.409
624.481,1.413
624.751,1.420
625.021,1.420
625.292,1.410
625.562,1.406
625.833,1.406
626.103,1.402
626.373,1.392
626.643,1.388
626.914,1.391
627.184,1.398
627.454,1.400
627.724,1.400
627.994,1.399
628.264,1.400
628.534,1.394
628.804,1.390
629.074,1.395
629.344,1.405
629.614,1.410
629.884,1.400
630.154,1.385
630.424,1.369
630.693,1.357
630.963,1.346
631.233,1.338
631.502,1.341
631.772,1.360
632.041,1.383
632.311,1.394
632.581,1.394
632.850,1.388
633.119,1.377
633.389,1.367
633.658,1.362
633.928,1.368
634.197,1.379
634.466,1.394
634.735,1.405
635.004,1.403
635.274,1.395
635.543,1.384
635.812,1.382
636.081,1.385
636.350,1.388
636.619,1.388
636.888,1.388
637.157,1.392
637.426,1.403
637.694,1.411
637.963,1.409
638.232,1.400
638.501,1.390
638.769,1.390
639.038,1.395
639.307,1.407
639.575,1.415
639.844,1.406
640.112,1.393
640.381,1.376
640.649,1.373
640.917,1.376
641.186,1.381
641.454,1.385
641.722,1.384
641.991,1.387
642.259,1.381
642.527,1.377
642.795,1.371
643.063,1.364
643.331,1.359
643.599,1.361
643.867,1.371
644.135,1.379
644.403,1.386
644.671,1.389
644.939,1.393
645.206,1.396
645.474,1.400
645.742,1.393
646.009,1.380
646.277,1.374
646.545,1.380
646.812,1.398
647.080,1.413
647.347,1.421
647.615,1.418
647.882,1.403
648.149,1.387
648.417,1.376
648.684,1.377
648.951,1.389
649.219,1.399
649.486,1.405
649.753,1.401
650.020,1.391
650.287,1.380
650.554,1.372
650.821,1.368
651.088,1.368
651.355,1.378
651.622,1.385
651.889,1.390
652.155,1.382
652.422,1.383
652.689,1.390
652.956,1.396
653.222,1.406
653.489,1.423
653.755,1.437
654.022,1.434
654.288,1.414
654.555,1.398
654.821,1.393
655.088,1.396
655.354,1.401
655.620,1.409
655.887,1.412
656.153,1.415
656.419,1.415
656.685,1.414
656.951,1.412
657.217,1.406
657.483,1.395
657.749,1.386
658.015,1.382
658.281,1.384
658.547,1.380
658.813,1.372
659.079,1.364
659.345,1.360
659.610,1.361
659.876,1.364
660.142,1.369
660.407,1.373
660.673,1.377
660.939,1.384
661.204,1.384
661.470,1.382
661.735,1.379
662.000,1.383
662.266,1.381
662.531,1.374
662.796,1.366
663.062,1.362
663.327,1.359
663.592,1.359
663.857,1.361
664.122,1.362
664.388,1.360
664.653,1.364
664.918,1.372
665.183,1.377
665.448,1.382
665.712,1.387
665.977,1.396
666.242,1.394
666.507,1.374
666.772,1.354
667.037,1.343
667.301,1.349
667.566,1.355
667.831,1.365
668.095,1.371
668.360,1.373
668.624,1.365
668.889,1.366
669.153,1.367
669.418,1.374
669.682,1.377
669.946,1.385
670.211,1.397
670.475,1.411
670.739,1.421
671.004,1.429
671.268,1.453
671.532,1.481
671.796,1.473
672.060,1.446
672.324,1.416
672.588,1.421
672.852,1.438
673.116,1.486
673.380,1.530
673.644,1.508
673.908,1.444
674.172,1.382
674.436,1.381
674.700,1.389
674.963,1.398
675.227,1.397
675.491,1.386
675.754,1.376
676.018,1.370
676.282,1.376
676.545,1.379
676.809,1.374
677.072,1.365
677.336,1.361
677.599,1.369
677.863,1.375
678.126,1.379
678.389,1.387
678.653,1.395
678.916,1.393
679.179,1.378
679.442,1.371
679.706,1.374
679.969,1.381
680.232,1.387
680.495,1.397
680.758,1.409
681.021,1.407
681.284,1.388
681.547,1.368
681.810,1.367
682.073,1.385
682.336,1.400
682.599,1.402
682.862,1.396
683.125,1.396
683.388,1.401
683.651,1.404
683.913,1.399
684.176,1.385
684.439,1.367
684.702,1.354
684.964,1.352
685.227,1.358
685.490,1.371
685.752,1.389
686.015,1.400
686.277,1.397
686.540,1.383
686.802,1.368
687.065,1.367
687.327,1.372
687.590,1.376
687.852,1.370
688.115,1.359
688.377,1.356
688.639,1.358
688.902,1.365
689.164,1.375
689.426,1.390
689.689,1.400
689.951,1.396
690.213,1.388
690.475,1.383
690.737,1.380
691.000,1.373
691.262,1.369
691.524,1.375
691.786,1.387
692.048,1.398
692.310,1.397
692.572,1.379
692.834,1.357
693.096,1.350
693.358,1.365
693.620,1.389
693.882,1.409
694.144,1.414
694.406,1.404
694.668,1.392
694.930,1.383
695.192,1.381
695.453,1.383
695.715,1.384
695.977,1.379
696.239,1.367
696.501,1.362
696.762,1.370
697.024,1.377
697.286,1.374
697.548,1.369
697.809,1.368
698.071,1.367
698.333,1.361
698.594,1.357
698.856,1.363
699.118,1.371
699.379,1.379
699.641,1.390
699.902,1.399
700.164,1.403
700.426,1.395
700.687,1.386
700.949,1.383
701.210,1.382
701.472,1.376
701.733,1.367
701.995,1.365
702.256,1.368
702.518,1.369
702.779,1.365
703.041,1.375
703.302,1.392
703.563,1.398
703.825,1.388
704.086,1.375
704.348,1.370
704.609,1.372
704.871,1.383
705.132,1.398
705.393,1.397
705.655,1.393
705.916,1.390
706.177,1.393
706.439,1.392
706.700,1.387
706.961,1.385
707.223,1.382
707.484,1.364
707.745,1.348
708.007,1.330
708.268,1.320
708.529,1.307
708.790,1.290
709.052,1.279
709.313,1.282
709.574,1.296
709.835,1.308
710.097,1.302
710.358,1.285
710.619,1.267
710.881,1.254
711.142,1.245
711.403,1.241
711.664,1.240
711.926,1.237
712.187,1.241
712.448,1.246
712.709,1.258
712.970,1.270
713.232,1.281
713.493,1.287
713.754,1.286
714.015,1.290
714.277,1.298
714.538,1.308
714.799,1.319
715.060,1.324
715.322,1.322
715.583,1.309
715.844,1.293
716.105,1.278
716.367,1.271
716.628,1.272
716.889,1.275
717.150,1.269
717.411,1.260
717.673,1.262
717.934,1.272
718.195,1.279
718.457,1.271
718.718,1.258
718.979,1.251
719.240,1.254
719.502,1.263
719.763,1.270
720.024,1.277
720.286,1.282
720.547,1.274
720.808,1.263
721.069,1.258
721.331,1.266
721.592,1.278
721.853,1.284
722.115,1.287
722.376,1.288
722.638,1.286
722.899,1.283
723.160,1.276
723.422,1.268
723.683,1.262
723.944,1.266
724.206,1.271
724.467,1.273
724.729,1.270
724.990,1.274
725.252,1.280
725.513,1.272
725.775,1.256
726.036,1.243
726.298,1.241
726.559,1.246
726.821,1.249
727.082,1.255
727.344,1.257
727.605,1.259
727.867,1.257
728.128,1.259
728.390,1.261
728.652,1.270
728.913,1.282
729.175,1.291
729.436,1.292
729.698,1.291
729.960,1.288
730.221,1.281
730.483,1.264
730.745,1.256
731.007,1.256
731.268,1.261
731.530,1.262
731.792,1.262
732.054,1.266
732.315,1.272
732.577,1.279
732.839,1.273
733.101,1.260
733.363,1.249
733.625,1.247
733.887,1.251
734.149,1.255
734.411,1.264
734.673,1.273
734.935,1.280
735.197,1.278
735.459,1.280
735.721,1.281
735.983,1.274
736.245,1.257
736.507,1.251
736.769,1.261
737.031,1.271
737.293,1.267
737.555,1.256
737.818,1.251
738.080,1.251
738.342,1.250
738.604,1.248
738.867,1.248
739.129,1.249
739.391,1.248
739.654,1.247
739.916,1.248
740.178,1.256
740.441,1.268
740.703,1.272
740.966,1.266
741.228,1.255
741.491,1.248
741.753,1.251
742.016,1.255
742.278,1.259
742.541,1.262
742.804,1.264
743.066,1.269
743.329,1.269
743.592,1.266
743.854,1.267
744.117,1.274
744.380,1.283
744.643,1.281
744.905,1.275
745.168,1.270
745.431,1.264
745.694,1.257
745.957,1.249
746.220,1.243
746.483,1.240
746.746,1.243
747.009,1.257
747.272,1.279
747.535,1.298
747.798,1.300
748.061,1.285
748.324,1.263
748.588,1.255
748.851,1.257
749.114,1.263
749.377,1.269
749.641,1.271
749.904,1.274
750.167,1.279
750.431,1.285
750.694,1.292
750.958,1.293
751.221,1.287
751.485,1.269
751.748,1.255
752.012,1.256
752.275,1.274
752.539,1.284
752.803,1.279
753.066,1.262
753.330,1.251
753.594,1.248
753.857,1.251
754.121,1.259
754.385,1.270
754.649,1.277
754.913,1.282
755.177,1.284
755.441,1.280
755.705,1.269
755.969,1.259
756.233,1.264
756.497,1.271
756.761,1.268
757.025,1.257
757.289,1.251
757.553,1.256
757.818,1.267
758.082,1.276
758.346,1.278
758.610,1.277
758.875,1.275
759.139,1.273
759.404,1.268
759.668,1.263
759.932,1.264
760.197,1.273
760.462,1.279
760.726,1.278
760.991,1.272
761.255,1.271
761.520,1.272
761.785,1.269
762.049,1.256
762.314,1.246
762.579,1.251
762.844,1.270
763.109,1.284
763.374,1.284
763.639,1.276
763.903,1.267
764.168,1.259
764.433,1.257
764.699,1.265
764.964,1.269
765.229,1.264
765.494,1.252
765.759,1.245
766.024,1.247
766.290,1.255
766.555,1.267
766.820,1.275
767.086,1.280
767.351,1.279
767.616,1.278
767.882,1.274
768.147,1.269
768.413,1.261
768.678,1.252
768.944,1.250
769.209,1.259
769.475,1.275
769.741,1.290
770.006,1.298
770.272,1.301
770.538,1.295
770.804,1.285
771.070,1.284
771.335,1.294
771.601,1.307
771.867,1.310
772.133,1.304
772.399,1.294
772.665,1.281
772.931,1.278
773.197,1.285
773.464,1.301
773.730,1.315
773.996,1.319
774.262,1.319
774.528,1.313
774.795,1.309
775.061,1.311
775.327,1.308
775.594,1.297
775.860,1.280
776.126,1.260
776.393,1.248
776.659,1.242
776.926,1.242
777.193,1.247
777.459,1.253
777.726,1.255
777.992,1.250
778.259,1.243
778.526,1.246
778.793,1.253
779.059,1.263
779.326,1.272
779.593,1.278
779.860,1.286
780.127,1.285
780.394,1.285
780.661,1.282
780.928,1.276
781.195,1.268
781.462,1.260
781.729,1.261
781.996,1.263
782.263,1.267
782.530,1.278
782.797,1.284
783.064,1.280
783.332,1.269
783.599,1.263
783.866,1.267
784.134,1.269
784.401,1.269
784.668,1.270
784.936,1.271
785.203,1.266
785.470,1.253
785.738,1.246
786.005,1.242
786.273,1.242
786.541,1.239
786.808,1.242
787.076,1.247
787.343,1.253
787.611,1.264
787.879,1.280
788.146,1.290
788.414,1.294
788.682,1.285
788.950,1.281
789.217,1.283
789.485,1.299
789.753,1.308
790.021,1.298
790.289,1.274
790.557,1.250
790.825,1.240
791.093,1.245
791.361,1.262
791.629,1.277
791.897,1.284
792.165,1.285
792.433,1.279
792.701,1.262
792.969,1.243
793.237,1.234
793.505,1.244
793.773,1.260
794.042,1.264
794.310,1.258
794.578,1.252
794.846,1.250
795.115,1.249
795.383,1.251
795.651,1.264
795.920,1.273
796.188,1.276
796.456,1.276
796.725,1.278
796.993,1.289
797.261,1.294
797.530,1.293
797.798,1.286
798.067,1.287
798.335,1.294
798.604,1.291
798.872,1.274
799.141,1.259
799.409,1.253
799.678,1.258
799.946,1.267
800.215,1.274
800.483,1.273
800.752,1.270
801.020,1.264
801.289,1.263
801.558,1.266
801.826,1.271
802.095,1.269
802.363,1.266
802.632,1.264
802.901,1.272
803.169,1.276
803.438,1.273
803.707,1.262
803.976,1.249
804.244,1.247
804.513,1.250
804.782,1.249
805.050,1.247
805.319,1.252
805.588,1.268
805.857,1.282
806.125,1.284
806.394,1.276
806.663,1.262
806.931,1.251
807.200,1.245
807.469,1.245
807.738,1.245
808.006,1.245
808.275,1.252
808.544,1.266
808.813,1.279
809.082,1.278
809.350,1.266
809.619,1.255
809.888,1.246
810.157,1.243
810.425,1.242
810.694,1.247
810.963,1.256
811.232,1.256
811.500,1.245
811.769,1.233
812.038,1.232
812.306,1.242
812.575,1.255
812.844,1.265
813.113,1.268
813.381,1.262
813.650,1.264
813.919,1.271
814.187,1.283
814.456,1.287
814.725,1.289
814.993,1.286
815.262,1.286
815.531,1.282
815.799,1.281
816.068,1.271
816.336,1.259
816.605,1.253
816.873,1.259
817.142,1.274
817.411,1.285
817.679,1.291
817.948,1.299
818.216,1.316
818.485,1.349
818.753,1.371
819.021,1.348
819.290,1.299
819.558,1.264
819.827,1.266
820.095,1.276
820.363,1.280
820.632,1.279
820.900,1.276
821.168,1.276
821.437,1.281
821.705,1.285
821.973,1.286
822.241,1.284
822.509,1.282
822.777,1.272
823.046,1.263
823.314,1.263
823.582,1.274
823.850,1.282
824.118,1.285
824.386,1.280
824.654,1.265
824.922,1.248
825.190,1.240
825.457,1.252
825.725,1.266
825.993,1.266
826.261,1.259
826.529,1.255
826.796,1.256
827.064,1.254
827.332,1.251
827.599,1.260
827.867,1.279
828.134,1.287
828.402,1.275
828.669,1.258
828.937,1.248
829.204,1.261
829.471,1.284
829.739,1.298
830.006,1.300
830.273,1.289
830.540,1.275
830.807,1.256
831.075,1.248
831.342,1.255
831.609,1.267
831.876,1.277
832.142,1.279
832.409,1.280
832.676,1.270
832.943,1.257
833.210,1.248
833.476,1.248
833.743,1.255
834.010,1.259
834.276,1.253
834.543,1.244
834.809,1.248
835.076,1.257
835.342,1.265
835.608,1.276
835.874,1.284
836.141,1.287
836.407,1.279
836.673,1.269
836.939,1.263
837.205,1.256
837.471,1.255
837.737,1.260
838.002,1.265
838.268,1.268
838.534,1.270
838.799,1.270
839.065,1.274
839.330,1.274
839.596,1.274
839.861,1.275
840.127,1.280
840.392,1.285
840.657,1.289
840.922,1.295
841.187,1.304
841.452,1.307
841.717,1.306
841.982,1.294
842.247,1.280
842.511,1.270
842.776,1.271
843.041,1.273
843.305,1.267
843.570,1.261
843.834,1.258
844.098,1.256
844.362,1.253
844.627,1.249
844.891,1.249
845.155,1.253
845.419,1.264
845.682,1.271
845.946,1.278
846.210,1.284
846.474,1.285
846.737,1.286
847.001,1.279
847.264,1.264
847.527,1.253
847.790,1.252
848.054,1.258
848.317,1.256
848.580,1.253
848.843,1.257
849.105,1.278
849.368,1.297
849.631,1.306
849.893,1.307
850.156,1.313
850.418,1.313
850.680,1.294
850.943,1.274
851.205,1.270
851.467,1.271
851.729,1.266
851.991,1.260
852.252,1.266
852.514,1.278
852.776,1.286
853.037,1.292
853.298,1.288
853.560,1.276
853.821,1.258
854.082,1.245
854.343,1.249
854.604,1.271
854.865,1.303
855.126,1.321
855.386,1.326
855.647,1.322
855.907,1.311
856.168,1.295
856.428,1.282
856.688,1.276
856.948,1.262
857.208,1.250
857.468,1.245
857.727,1.254
857.987,1.263
858.247,1.273
858.506,1.286
858.765,1.292
859.024,1.283
859.284,1.268
859.543,1.257
859.801,1.252
860.060,1.253
860.319,1.263
860.577,1.274
860.836,1.281
861.094,1.283
861.352,1.281
861.611,1.271
861.869,1.256
862.127,1.252
862.384,1.259
862.642,1.269
862.900,1.281
863.157,1.286
863.414,1.284
863.672,1.267
863.929,1.250
864.186,1.249
864.443,1.257
864.699,1.264
864.956,1.261
865.212,1.250
865.469,1.247
865.725,1.257
865.981,1.273
866.237,1.283
866.493,1.285
866.749,1.274
867.005,1.264
867.260,1.250
867.516,1.243
867.771,1.238
868.026,1.243
868.282,1.259
868.536,1.272
868.791,1.274
869.046,1.262
869.301,1.254
869.555,1.254
869.809,1.270
870.064,1.282
870.318,1.291
870.572,1.292
870.826,1.278
871.079,1.263
871.333,1.252
871.586,1.256
871.840,1.259
872.093,1.260
872.346,1.269
872.599,1.285
872.852,1.304
873.105,1.313
873.357,1.308
873.610,1.295
873.862,1.289
874.114,1.290
874.366,1.294
874.618,1.287
874.870,1.268
875.121,1.249
875.373,1.240
875.624,1.244
875.876,1.248
876.127,1.252
876.378,1.256
876.629,1.261
876.879,1.268
877.130,1.273
877.381,1.266
877.631,1.249
877.881,1.237
878.131,1.247
878.381,1.273
878.631,1.302
878.881,1.315
879.130,1.312
879.380,1.300
879.629,1.288
879.878,1.273
880.127,1.264
880.376,1.263
880.625,1.275
880.873,1.288
881.122,1.296
881.370,1.294
881.618,1.282
881.866,1.270
882.114,1.261
882.362,1.262
882.610,1.271
882.857,1.282
883.105,1.285
883.352,1.274
883.599,1.260
883.846,1.250
884.093,1.252
884.340,1.263
884.586,1.278
884.833,1.285
885.079,1.279
885.325,1.266
885.571,1.260
885.817,1.260
886.063,1.269
886.309,1.274
886.554,1.285
886.800,1.294
887.045,1.300
887.290,1.287
887.535,1.270
887.780,1.265
888.025,1.277
888.270,1.299
888.514,1.316
888.758,1.319
889.003,1.306
889.247,1.283
889.491,1.276
889.735,1.281
889.978,1.294
890.222,1.293
890.465,1.284
890.709,1.272
890.952,1.257
891.195,1.246
891.438,1.241
891.681,1.241
891.923,1.249
892.166,1.258
892.408,1.262
892.651,1.254
892.893,1.242
893.135,1.235
893.377,1.237
893.619,1.245
893.861,1.256
894.102,1.269
894.344,1.288
894.585,1.309
894.826,1.320
895.067,1.311
895.308,1.293
895.549,1.274
895.790,1.264
896.031,1.256
896.271,1.261
896.512,1.277
896.752,1.292
896.992,1.289
897.232,1.272
897.472,1.262
897.712,1.274
897.952,1.296
898.191,1.304
898.431,1.298
898.670,1.295
898.910,1.298
899.149,1.310
899.388,1.317
899.627,1.317
899.866,1.305
900.105,1.290
900.343,1.285
900.582,1.287
900.820,1.295
901.059,1.309
901.297,1.315
901.535,1.301
901.773,1.276
902.011,1.255
902.249,1.242
902.487,1.239
902.725,1.242
902.963,1.255
903.200,1.261
903.438,1.259
903.675,1.257
903.912,1.263
904.150,1.276
904.387,1.281
904.624,1.274
904.861,1.259
905.098,1.249
905.334,1.253
905.571,1.253
905.808,1.256
906.045,1.265
906.281,1.278
906.518,1.286
906.754,1.289
906.990,1.291
907.227,1.288
907.463,1.276
907.699,1.266
907.935,1.270
908.171,1.280
908.407,1.281
908.643,1.277
908.879,1.278
909.115,1.287
909.350,1.293
909.586,1.289
909.822,1.286
910.057,1.295
910.293,1.317
910.528,1.331
910.764,1.328
910.999,1.321
911.235,1.312
911.470,1.314
911.706,1.307
911.941,1.305
912.176,1.293
912.412,1.281
912.647,1.275
912.882,1.279
913.117,1.283
913.352,1.278
913.588,1.268
913.823,1.261
914.058,1.260
914.293,1.261
914.528,1.256
914.763,1.250
914.999,1.246
915.234,1.250
915.469,1.257
915.704,1.262
915.939,1.263
916.174,1.261
916.409,1.263
916.645,1.278
916.880,1.291
917.115,1.298
917.350,1.291
917.586,1.285
917.821,1.287
918.056,1.295
918.292,1.302
918.527,1.298
918.763,1.283
918.998,1.270
919.234,1.278
919.469,1.294
919.705,1.302
919.940,1.294
920.176,1.285
920.412,1.288
920.648,1.289
920.884,1.284
921.120,1.272
921.356,1.266
921.592,1.266
921.828,1.270
922.065,1.279
922.301,1.293
922.537,1.304
922.774,1.306
923.011,1.292
923.247,1.278
923.484,1.278
923.721,1.292
923.958,1.303
924.195,1.300
924.433,1.291
924.670,1.275
924.908,1.259
925.145,1.254
925.383,1.265
925.621,1.278
925.859,1.288
926.097,1.293
926.335,1.292
926.574,1.289
926.813,1.286
927.051,1.283
927.290,1.282
927.529,1.293
927.769,1.317
928.008,1.330
928.248,1.316
928.487,1.293
928.727,1.283
928.967,1.296
929.208,1.306
929.448,1.304
929.689,1.292
929.930,1.278
930.171,1.266
930.413,1.260
930.654,1.255
930.896,1.247
931.138,1.238
931.380,1.235
931.623,1.248
931.865,1.266
932.108,1.283
932.352,1.291
932.595,1.292
932.839,1.296
933.083,1.290
933.327,1.281
933.571,1.268
933.816,1.270
934.061,1.277
934.307,1.276
934.552,1.262
934.798,1.255
935.045,1.259
935.291,1.265
935.538,1.271
935.785,1.278
936.033,1.290
936.281,1.299
936.529,1.301
936.777,1.295
937.026,1.282
937.275,1.271
937.525,1.263
937.775,1.258
938.025,1.253
938.276,1.251
938.527,1.253
938.778,1.253
939.030,1.252
939.282,1.251
939.535,1.257
939.788,1.269
940.041,1.271
940.295,1.267
940.550,1.266
940.804,1.277
941.059,1.288
941.315,1.281
941.571,1.265
941.828,1.252
942.085,1.251
942.342,1.254
942.600,1.256
942.858,1.257
943.117,1.255
943.377,1.249
943.636,1.241
943.897,1.237
944.158,1.243
944.419,1.255
944.681,1.265
944.944,1.271
945.207,1.279
945.470,1.285
945.734,1.290
945.999,1.298
946.264,1.312
946.530,1.319
946.797,1.316
947.064,1.307
947.331,1.299
947.600,1.285
947.869,1.270
948.138,1.254
948.408,1.247
948.679,1.250
948.950,1.257
949.222,1.255
949.495,1.249
949.768,1.251
950.043,1.268
