Wavelength (nm),Intensity B28.3,,Untitled.sp,,,B28.3,
379.792,1.983,,2018-06-14 14:28:03,,Integration Time,140 ms,
380.000,1.980,,Analyze Light,,Number of Scans to Average,25,
380.209,1.978,,,,Smoothing,1,
380.418,1.991
380.627,2.009
380.837,2.029
381.048,2.040
381.259,2.042
381.471,2.036
381.683,2.033
381.896,2.037
382.110,2.042
382.324,2.056
382.538,2.072
382.753,2.088
382.969,2.084
383.185,2.078
383.402,2.072
383.619,2.081
383.837,2.093
384.055,2.113
384.274,2.133
384.493,2.145
384.712,2.149
384.932,2.150
385.153,2.154
385.374,2.159
385.596,2.167
385.818,2.182
386.040,2.200
386.263,2.217
386.487,2.223
386.710,2.223
386.935,2.212
387.159,2.206
387.385,2.199
387.610,2.201
387.836,2.206
388.063,2.216
388.289,2.227
388.517,2.236
388.744,2.238
388.972,2.246
389.201,2.254
389.430,2.262
389.659,2.268
389.889,2.278
390.119,2.291
390.349,2.301
390.580,2.312
390.811,2.319
391.042,2.323
391.274,2.325
391.507,2.329
391.739,2.329
391.972,2.325
392.205,2.330
392.439,2.342
392.673,2.356
392.907,2.365
393.142,2.378
393.377,2.391
393.612,2.407
393.848,2.410
394.084,2.413
394.320,2.412
394.557,2.424
394.794,2.433
395.031,2.446
395.269,2.457
395.507,2.473
395.745,2.479
395.983,2.485
396.222,2.493
396.461,2.515
396.700,2.537
396.940,2.550
397.180,2.550
397.420,2.545
397.660,2.545
397.901,2.549
398.142,2.556
398.383,2.559
398.625,2.556
398.866,2.564
399.108,2.586
399.351,2.625
399.593,2.640
399.836,2.638
400.079,2.620
400.322,2.610
400.566,2.603
400.809,2.600
401.053,2.604
401.298,2.613
401.542,2.624
401.787,2.637
402.031,2.648
402.277,2.663
402.522,2.672
402.767,2.683
403.013,2.685
403.259,2.692
403.505,2.695
403.752,2.700
403.998,2.702
404.245,2.716
404.492,2.734
404.739,2.748
404.986,2.756
405.234,2.761
405.482,2.764
405.730,2.766
405.978,2.765
406.226,2.765
406.475,2.758
406.723,2.760
406.972,2.770
407.221,2.788
407.470,2.801
407.720,2.814
407.969,2.813
408.219,2.822
408.469,2.833
408.719,2.850
408.969,2.856
409.219,2.865
409.470,2.875
409.720,2.888
409.971,2.895
410.222,2.913
410.473,2.920
410.724,2.924
410.976,2.926
411.227,2.945
411.479,2.961
411.731,2.970
411.983,2.967
412.235,2.968
412.487,2.968
412.740,2.974
412.992,2.977
413.245,2.989
413.497,2.996
413.750,3.005
414.003,3.007
414.257,3.005
414.510,3.002
414.763,3.011
415.017,3.024
415.270,3.038
415.524,3.040
415.778,3.044
416.032,3.051
416.286,3.071
416.540,3.083
416.794,3.099
417.049,3.096
417.303,3.101
417.558,3.102
417.812,3.108
418.067,3.107
418.322,3.113
418.577,3.116
418.832,3.120
419.088,3.105
419.343,3.103
419.598,3.089
419.854,3.087
420.109,3.087
420.365,3.109
420.621,3.129
420.876,3.144
421.132,3.146
421.388,3.146
421.645,3.141
421.901,3.147
422.157,3.152
422.413,3.158
422.670,3.153
422.926,3.155
423.183,3.145
423.439,3.152
423.696,3.161
423.953,3.201
424.210,3.231
424.467,3.248
424.724,3.242
424.981,3.233
425.238,3.237
425.495,3.259
425.753,3.283
426.010,3.308
426.267,3.324
426.525,3.357
426.782,3.388
427.040,3.426
427.298,3.463
427.555,3.514
427.813,3.562
428.071,3.606
428.329,3.641
428.587,3.681
428.845,3.725
429.103,3.785
429.361,3.841
429.619,3.898
429.878,3.953
430.136,4.025
430.394,4.097
430.653,4.191
430.911,4.294
431.170,4.408
431.428,4.506
431.687,4.612
431.946,4.716
432.204,4.833
432.463,4.948
432.722,5.075
432.981,5.206
433.240,5.356
433.499,5.515
433.758,5.690
434.017,5.848
434.276,6.014
434.535,6.181
434.794,6.371
435.053,6.573
435.312,6.785
435.572,6.996
435.831,7.224
436.090,7.471
436.350,7.744
436.609,8.022
436.869,8.305
437.128,8.581
437.388,8.875
437.647,9.195
437.907,9.545
438.166,9.891
438.426,10.232
438.686,10.583
438.946,10.961
439.205,11.357
439.465,11.769
439.725,12.203
439.985,12.653
440.245,13.102
440.505,13.557
440.765,14.021
441.025,14.492
441.285,14.967
441.545,15.464
441.805,15.986
442.065,16.536
442.325,17.105
442.585,17.707
442.846,18.328
443.106,18.974
443.366,19.635
443.626,20.311
443.887,21.008
444.147,21.742
444.407,22.500
444.668,23.296
444.928,24.119
445.189,25.000
445.449,25.918
445.710,26.873
445.970,27.868
446.231,28.905
446.491,30.000
446.752,31.146
447.012,32.342
447.273,33.598
447.534,34.899
447.794,36.252
448.055,37.653
448.316,39.140
448.577,40.711
448.837,42.369
449.098,44.103
449.359,45.896
449.620,47.732
449.881,49.618
450.142,51.565
450.403,53.589
450.664,55.693
450.924,57.856
451.185,60.071
451.446,62.329
451.707,64.622
451.969,66.954
452.230,69.278
452.491,71.599
452.752,73.875
453.013,76.120
453.274,78.321
453.535,80.448
453.796,82.417
454.058,84.148
454.319,85.599
454.580,86.788
454.841,87.769
455.103,88.607
455.364,89.335
455.625,89.980
455.887,90.532
456.148,90.998
456.409,91.371
456.671,91.654
456.932,91.844
457.194,91.957
457.455,92.004
457.716,92.000
457.978,91.942
458.239,91.825
458.501,91.654
458.763,91.429
459.024,91.145
459.286,90.781
459.547,90.338
459.809,89.806
460.071,89.185
460.332,88.477
460.594,87.675
460.856,86.762
461.117,85.679
461.379,84.382
461.641,82.846
461.903,81.124
462.164,79.312
462.426,77.485
462.688,75.658
462.950,73.824
463.212,72.009
463.474,70.226
463.736,68.483
463.998,66.799
464.260,65.186
464.522,63.662
464.784,62.215
465.046,60.860
465.308,59.590
465.570,58.388
465.832,57.243
466.094,56.144
466.356,55.095
466.618,54.084
466.880,53.101
467.142,52.146
467.405,51.239
467.667,50.385
467.929,49.586
468.191,48.815
468.454,48.068
468.716,47.324
468.978,46.587
469.241,45.840
469.503,45.104
469.765,44.383
470.028,43.686
470.290,43.004
470.552,42.321
470.815,41.646
471.077,40.958
471.340,40.272
471.602,39.578
471.865,38.894
472.128,38.196
472.390,37.499
472.653,36.784
472.915,36.053
473.178,35.308
473.441,34.553
473.703,33.798
473.966,33.022
474.229,32.252
474.492,31.479
474.755,30.711
475.017,29.960
475.280,29.224
475.543,28.504
475.806,27.760
476.069,27.000
476.332,26.248
476.595,25.519
476.858,24.817
477.121,24.121
477.384,23.445
477.647,22.797
477.910,22.163
478.173,21.545
478.436,20.940
478.699,20.370
478.962,19.830
479.226,19.315
479.489,18.803
479.752,18.295
480.015,17.790
480.279,17.306
480.542,16.841
480.805,16.396
481.069,15.956
481.332,15.538
481.595,15.149
481.859,14.812
482.122,14.478
482.386,14.137
482.649,13.790
482.913,13.459
483.177,13.135
483.440,12.810
483.704,12.498
483.967,12.219
484.231,11.969
484.495,11.737
484.759,11.498
485.022,11.238
485.286,10.961
485.550,10.695
485.814,10.435
486.078,10.195
486.342,9.958
486.606,9.749
486.869,9.536
487.133,9.331
487.397,9.122
487.662,8.922
487.926,8.707
488.190,8.501
488.454,8.298
488.718,8.110
488.982,7.898
489.246,7.699
489.511,7.495
489.775,7.308
490.039,7.114
490.304,6.925
490.568,6.735
490.832,6.559
491.097,6.393
491.361,6.241
491.626,6.075
491.890,5.913
492.155,5.745
492.419,5.600
492.684,5.449
492.949,5.306
493.213,5.159
493.478,5.034
493.743,4.903
494.008,4.756
494.272,4.600
494.537,4.469
494.802,4.359
495.067,4.265
495.332,4.162
495.597,4.065
495.862,3.959
496.127,3.866
496.392,3.772
496.657,3.684
496.922,3.592
497.187,3.511
497.452,3.438
497.718,3.384
497.983,3.328
498.248,3.271
498.513,3.198
498.779,3.138
499.044,3.078
499.310,3.019
499.575,2.949
499.841,2.894
500.106,2.846
500.372,2.800
500.637,2.753
500.903,2.719
501.168,2.688
501.434,2.651
501.700,2.599
501.966,2.554
502.231,2.510
502.497,2.478
502.763,2.440
503.029,2.404
503.295,2.371
503.561,2.347
503.827,2.330
504.093,2.314
504.359,2.293
504.625,2.271
504.891,2.243
505.157,2.225
505.423,2.197
505.690,2.170
505.956,2.138
506.222,2.121
506.489,2.118
506.755,2.123
507.021,2.123
507.288,2.117
507.554,2.099
507.821,2.078
508.087,2.057
508.354,2.050
508.621,2.041
508.887,2.028
509.154,2.012
509.421,1.999
509.687,1.981
509.954,1.958
510.221,1.937
510.488,1.933
510.755,1.938
511.022,1.946
511.289,1.936
511.556,1.918
511.823,1.899
512.090,1.897
512.357,1.890
512.624,1.882
512.891,1.865
513.159,1.849
513.426,1.830
513.693,1.814
513.960,1.805
514.228,1.805
514.495,1.808
514.763,1.809
515.030,1.805
515.298,1.795
515.565,1.794
515.833,1.792
516.100,1.789
516.368,1.780
516.636,1.770
516.904,1.767
517.171,1.760
517.439,1.756
517.707,1.746
517.975,1.744
518.243,1.746
518.511,1.746
518.779,1.733
519.047,1.727
519.315,1.724
519.583,1.722
519.851,1.704
520.119,1.689
520.387,1.680
520.656,1.683
520.924,1.691
521.192,1.701
521.461,1.705
521.729,1.707
521.997,1.705
522.266,1.702
522.534,1.695
522.803,1.691
523.071,1.686
523.340,1.677
523.609,1.664
523.877,1.657
524.146,1.658
524.415,1.664
524.684,1.672
524.952,1.671
525.221,1.667
525.490,1.667
525.759,1.672
526.028,1.673
526.297,1.661
526.566,1.648
526.835,1.642
527.104,1.641
527.373,1.644
527.642,1.643
527.912,1.638
528.181,1.633
528.450,1.631
528.719,1.637
528.989,1.651
529.258,1.664
529.528,1.667
529.797,1.659
530.067,1.653
530.336,1.644
530.606,1.636
530.875,1.622
531.145,1.619
531.414,1.622
531.684,1.631
531.954,1.634
532.224,1.626
532.493,1.604
532.763,1.589
533.033,1.587
533.303,1.599
533.573,1.611
533.843,1.611
534.113,1.609
534.383,1.600
534.653,1.599
534.923,1.600
535.193,1.607
535.463,1.620
535.733,1.631
536.004,1.637
536.274,1.634
536.544,1.623
536.814,1.613
537.085,1.605
537.355,1.608
537.626,1.623
537.896,1.636
538.166,1.643
538.437,1.642
538.707,1.637
538.978,1.636
539.249,1.637
539.519,1.638
539.790,1.628
540.061,1.619
540.331,1.620
540.602,1.628
540.873,1.636
541.144,1.640
541.414,1.642
541.685,1.642
541.956,1.639
542.227,1.635
542.498,1.623
542.769,1.614
543.040,1.617
543.311,1.635
543.582,1.656
543.853,1.664
544.124,1.664
544.396,1.662
544.667,1.661
544.938,1.655
545.209,1.630
545.480,1.609
545.752,1.599
546.023,1.608
546.294,1.609
546.566,1.601
546.837,1.589
547.109,1.583
547.380,1.581
547.652,1.578
547.923,1.573
548.195,1.577
548.466,1.594
548.738,1.615
549.009,1.618
549.281,1.605
549.553,1.587
549.824,1.568
550.096,1.557
550.368,1.556
550.640,1.561
550.911,1.569
551.183,1.583
551.455,1.609
551.727,1.624
551.999,1.617
552.271,1.596
552.543,1.582
552.815,1.577
553.087,1.579
553.359,1.585
553.631,1.590
553.903,1.595
554.175,1.601
554.447,1.608
554.719,1.607
554.991,1.602
555.263,1.595
555.535,1.589
555.808,1.583
556.080,1.574
556.352,1.566
556.624,1.561
556.897,1.559
557.169,1.561
557.441,1.562
557.714,1.561
557.986,1.561
558.258,1.556
558.531,1.562
558.803,1.570
559.076,1.579
559.348,1.574
559.621,1.564
559.893,1.563
560.166,1.567
560.438,1.570
560.711,1.560
560.983,1.550
561.256,1.551
561.528,1.562
561.801,1.576
562.074,1.586
562.346,1.596
562.619,1.604
562.892,1.603
563.164,1.595
563.437,1.590
563.710,1.585
563.983,1.572
564.255,1.558
564.528,1.560
564.801,1.576
565.074,1.586
565.346,1.578
565.619,1.571
565.892,1.578
566.165,1.583
566.438,1.574
566.711,1.559
566.984,1.552
567.257,1.551
567.529,1.555
567.802,1.569
568.075,1.585
568.348,1.585
568.621,1.578
568.894,1.570
569.167,1.570
569.440,1.571
569.713,1.563
569.986,1.556
570.259,1.545
570.532,1.549
570.805,1.550
571.078,1.550
571.351,1.550
571.625,1.555
571.898,1.556
572.171,1.547
572.444,1.537
572.717,1.543
572.990,1.557
573.263,1.560
573.536,1.551
573.809,1.533
574.083,1.524
574.356,1.529
574.629,1.549
574.902,1.565
575.175,1.565
575.448,1.545
575.721,1.531
575.995,1.526
576.268,1.530
576.541,1.543
576.814,1.556
577.087,1.569
577.361,1.572
577.634,1.569
577.907,1.553
578.180,1.531
578.453,1.520
578.727,1.523
579.000,1.532
579.273,1.540
579.546,1.554
579.820,1.569
580.093,1.572
580.366,1.563
580.639,1.548
580.913,1.543
581.186,1.544
581.459,1.542
581.732,1.532
582.005,1.526
582.279,1.524
582.552,1.529
582.825,1.529
583.098,1.530
583.372,1.532
583.645,1.538
583.918,1.547
584.191,1.551
584.464,1.551
584.738,1.547
585.011,1.541
585.284,1.531
585.557,1.523
585.831,1.527
586.104,1.547
586.377,1.577
586.650,1.592
586.923,1.592
587.196,1.583
587.470,1.571
587.743,1.558
588.016,1.545
588.289,1.542
588.562,1.548
588.835,1.553
589.109,1.547
589.382,1.538
589.655,1.528
589.928,1.525
590.201,1.521
590.474,1.534
590.747,1.549
591.020,1.565
591.293,1.568
591.567,1.566
591.840,1.555
592.113,1.544
592.386,1.529
592.659,1.518
592.932,1.515
593.205,1.523
593.478,1.531
593.751,1.528
594.024,1.521
594.297,1.514
594.570,1.511
594.843,1.518
595.116,1.530
595.389,1.538
595.662,1.534
595.934,1.534
596.207,1.541
596.480,1.555
596.753,1.567
597.026,1.569
597.299,1.567
597.572,1.560
597.844,1.548
598.117,1.531
598.390,1.514
598.663,1.509
598.936,1.518
599.208,1.529
599.481,1.537
599.754,1.537
600.026,1.525
600.299,1.515
600.572,1.506
600.844,1.503
601.117,1.495
601.390,1.489
601.662,1.489
601.935,1.490
602.207,1.495
602.480,1.505
602.752,1.513
603.025,1.509
603.297,1.501
603.570,1.509
603.842,1.531
604.115,1.546
604.387,1.552
604.660,1.542
604.932,1.538
605.204,1.537
605.477,1.552
605.749,1.572
606.021,1.587
606.294,1.591
606.566,1.577
606.838,1.567
607.110,1.563
607.383,1.571
607.655,1.579
607.927,1.592
608.199,1.602
608.471,1.606
608.743,1.600
609.015,1.595
609.287,1.589
609.559,1.587
609.831,1.586
610.103,1.585
610.375,1.576
610.647,1.565
610.919,1.554
611.191,1.550
611.463,1.552
611.735,1.555
612.007,1.552
612.278,1.546
612.550,1.543
612.822,1.552
613.094,1.559
613.365,1.560
613.637,1.561
613.909,1.559
614.180,1.558
614.452,1.551
614.723,1.541
614.995,1.532
615.266,1.530
615.538,1.540
615.809,1.551
616.081,1.547
616.352,1.533
616.623,1.522
616.895,1.517
617.166,1.513
617.437,1.509
617.709,1.508
617.980,1.513
618.251,1.523
618.522,1.536
618.793,1.555
619.065,1.579
619.336,1.583
619.607,1.568
619.878,1.558
620.149,1.564
620.420,1.572
620.691,1.565
620.962,1.559
621.232,1.558
621.503,1.550
621.774,1.542
622.045,1.537
622.316,1.550
622.586,1.565
622.857,1.577
623.128,1.578
623.398,1.573
623.669,1.565
623.940,1.550
624.210,1.536
624.481,1.539
624.751,1.552
625.021,1.557
625.292,1.545
625.562,1.534
625.833,1.529
626.103,1.522
626.373,1.506
626.643,1.501
626.914,1.507
627.184,1.526
627.454,1.536
627.724,1.537
627.994,1.533
628.264,1.532
628.534,1.523
628.804,1.517
629.074,1.518
629.344,1.531
629.614,1.535
629.884,1.525
630.154,1.511
630.424,1.495
630.693,1.479
630.963,1.460
631.233,1.449
631.502,1.453
631.772,1.475
632.041,1.499
632.311,1.512
632.581,1.517
632.850,1.516
633.119,1.503
633.389,1.483
633.658,1.469
633.928,1.473
634.197,1.489
634.466,1.513
634.735,1.533
635.004,1.531
635.274,1.518
635.543,1.504
635.812,1.503
636.081,1.505
636.350,1.502
636.619,1.507
636.888,1.509
637.157,1.516
637.426,1.517
637.694,1.518
637.963,1.511
638.232,1.504
638.501,1.495
638.769,1.495
639.038,1.503
639.307,1.521
639.575,1.534
639.844,1.526
640.112,1.510
640.381,1.494
640.649,1.492
640.917,1.501
641.186,1.506
641.454,1.509
641.722,1.503
641.991,1.502
642.259,1.492
642.527,1.485
642.795,1.481
643.063,1.477
643.331,1.476
643.599,1.477
643.867,1.487
644.135,1.495
644.403,1.508
644.671,1.516
644.939,1.529
645.206,1.535
645.474,1.537
645.742,1.524
646.009,1.503
646.277,1.489
646.545,1.491
646.812,1.510
647.080,1.531
647.347,1.548
647.615,1.546
647.882,1.530
648.149,1.510
648.417,1.495
648.684,1.492
648.951,1.500
649.219,1.508
649.486,1.510
649.753,1.505
650.020,1.495
650.287,1.487
650.554,1.482
650.821,1.486
651.088,1.487
651.355,1.497
651.622,1.498
651.889,1.500
652.155,1.492
652.422,1.492
652.689,1.496
652.956,1.503
653.222,1.518
653.489,1.540
653.755,1.553
654.022,1.544
654.288,1.522
654.555,1.508
654.821,1.507
655.088,1.512
655.354,1.520
655.620,1.531
655.887,1.536
656.153,1.538
656.419,1.536
656.685,1.535
656.951,1.537
657.217,1.534
657.483,1.525
657.749,1.512
658.015,1.505
658.281,1.507
658.547,1.503
658.813,1.492
659.079,1.481
659.345,1.476
659.610,1.475
659.876,1.475
660.142,1.480
660.407,1.486
660.673,1.494
660.939,1.499
661.204,1.496
661.470,1.489
661.735,1.485
662.000,1.492
662.266,1.497
662.531,1.495
662.796,1.491
663.062,1.485
663.327,1.483
663.592,1.486
663.857,1.491
664.122,1.489
664.388,1.481
664.653,1.480
664.918,1.487
665.183,1.491
665.448,1.497
665.712,1.501
665.977,1.509
666.242,1.510
666.507,1.492
666.772,1.475
667.037,1.460
667.301,1.465
667.566,1.472
667.831,1.481
668.095,1.485
668.360,1.486
668.624,1.481
668.889,1.484
669.153,1.482
669.418,1.483
669.682,1.481
669.946,1.485
670.211,1.499
670.475,1.511
670.739,1.526
671.004,1.539
671.268,1.568
671.532,1.598
671.796,1.588
672.060,1.563
672.324,1.535
672.588,1.542
672.852,1.559
673.116,1.598
673.380,1.635
673.644,1.612
673.908,1.560
674.172,1.509
674.436,1.507
674.700,1.512
674.963,1.516
675.227,1.519
675.491,1.513
675.754,1.505
676.018,1.499
676.282,1.506
676.545,1.508
676.809,1.498
677.072,1.485
677.336,1.477
677.599,1.480
677.863,1.478
678.126,1.481
678.389,1.490
678.653,1.501
678.916,1.501
679.179,1.490
679.442,1.484
679.706,1.489
679.969,1.494
680.232,1.498
680.495,1.504
680.758,1.513
681.021,1.517
681.284,1.508
681.547,1.495
681.810,1.496
682.073,1.514
682.336,1.530
682.599,1.530
682.862,1.521
683.125,1.515
683.388,1.515
683.651,1.513
683.913,1.509
684.176,1.499
684.439,1.485
684.702,1.473
684.964,1.472
685.227,1.479
685.490,1.490
685.752,1.503
686.015,1.504
686.277,1.497
686.540,1.483
686.802,1.469
687.065,1.467
687.327,1.470
687.590,1.478
687.852,1.475
688.115,1.465
688.377,1.463
688.639,1.469
688.902,1.478
689.164,1.484
689.426,1.499
689.689,1.513
689.951,1.516
690.213,1.509
690.475,1.507
690.737,1.505
691.000,1.499
691.262,1.493
691.524,1.494
691.786,1.506
692.048,1.517
692.310,1.514
692.572,1.495
692.834,1.475
693.096,1.472
693.358,1.489
693.620,1.511
693.882,1.529
694.144,1.529
694.406,1.515
694.668,1.499
694.930,1.485
695.192,1.482
695.453,1.486
695.715,1.495
695.977,1.493
696.239,1.480
696.501,1.473
696.762,1.481
697.024,1.488
697.286,1.484
697.548,1.480
697.809,1.479
698.071,1.481
698.333,1.482
698.594,1.484
698.856,1.492
699.118,1.494
699.379,1.497
699.641,1.502
699.902,1.512
700.164,1.511
700.426,1.504
700.687,1.494
700.949,1.495
701.210,1.499
701.472,1.498
701.733,1.489
701.995,1.484
702.256,1.485
702.518,1.485
702.779,1.481
703.041,1.490
703.302,1.506
703.563,1.508
703.825,1.493
704.086,1.479
704.348,1.479
704.609,1.483
704.871,1.497
705.132,1.512
705.393,1.512
705.655,1.502
705.916,1.494
706.177,1.496
706.439,1.497
706.700,1.494
706.961,1.492
707.223,1.491
707.484,1.476
707.745,1.461
708.007,1.442
708.268,1.432
708.529,1.421
708.790,1.407
709.052,1.397
709.313,1.394
709.574,1.397
709.835,1.403
710.097,1.401
710.358,1.390
710.619,1.376
710.881,1.364
711.142,1.357
711.403,1.352
711.664,1.351
711.926,1.348
712.187,1.350
712.448,1.354
712.709,1.364
712.970,1.374
713.232,1.380
713.493,1.384
713.754,1.384
714.015,1.387
714.277,1.392
714.538,1.404
714.799,1.419
715.060,1.426
715.322,1.424
715.583,1.414
715.844,1.401
716.105,1.388
716.367,1.378
716.628,1.377
716.889,1.377
717.150,1.371
717.411,1.360
717.673,1.358
717.934,1.365
718.195,1.377
718.457,1.372
718.718,1.360
718.979,1.352
719.240,1.359
719.502,1.373
719.763,1.386
720.024,1.392
720.286,1.392
720.547,1.381
720.808,1.369
721.069,1.362
721.331,1.364
721.592,1.372
721.853,1.377
722.115,1.378
722.376,1.382
722.638,1.382
722.899,1.384
723.160,1.376
723.422,1.367
723.683,1.357
723.944,1.358
724.206,1.360
724.467,1.365
724.729,1.366
724.990,1.376
725.252,1.385
725.513,1.380
725.775,1.362
726.036,1.348
726.298,1.347
726.559,1.356
726.821,1.359
727.082,1.361
727.344,1.357
727.605,1.356
727.867,1.353
728.128,1.355
728.390,1.359
728.652,1.367
728.913,1.376
729.175,1.379
729.436,1.379
729.698,1.378
729.960,1.375
730.221,1.369
730.483,1.357
730.745,1.355
731.007,1.356
731.268,1.357
731.530,1.358
731.792,1.358
732.054,1.365
732.315,1.369
732.577,1.374
732.839,1.369
733.101,1.360
733.363,1.352
733.625,1.351
733.887,1.354
734.149,1.355
734.411,1.362
734.673,1.369
734.935,1.373
735.197,1.368
735.459,1.367
735.721,1.368
735.983,1.365
736.245,1.352
736.507,1.350
736.769,1.356
737.031,1.366
737.293,1.361
737.555,1.351
737.818,1.342
738.080,1.337
738.342,1.337
738.604,1.340
738.867,1.344
739.129,1.346
739.391,1.347
739.654,1.347
739.916,1.348
740.178,1.352
740.441,1.360
740.703,1.364
740.966,1.360
741.228,1.352
741.491,1.347
741.753,1.351
742.016,1.355
742.278,1.356
742.541,1.354
742.804,1.353
743.066,1.360
743.329,1.364
743.592,1.361
743.854,1.362
744.117,1.372
744.380,1.382
744.643,1.378
744.905,1.367
745.168,1.360
745.431,1.356
745.694,1.353
745.957,1.348
746.220,1.345
746.483,1.343
746.746,1.344
747.009,1.354
747.272,1.375
747.535,1.390
747.798,1.392
748.061,1.376
748.324,1.357
748.588,1.345
748.851,1.342
749.114,1.342
749.377,1.346
749.641,1.349
749.904,1.357
750.167,1.368
750.431,1.375
750.694,1.384
750.958,1.388
751.221,1.383
751.485,1.369
751.748,1.357
752.012,1.360
752.275,1.376
752.539,1.386
752.803,1.384
753.066,1.371
753.330,1.359
753.594,1.354
753.857,1.355
754.121,1.362
754.385,1.370
754.649,1.373
754.913,1.371
755.177,1.374
755.441,1.370
755.705,1.364
755.969,1.354
756.233,1.358
756.497,1.365
756.761,1.366
757.025,1.361
757.289,1.356
757.553,1.356
757.818,1.360
758.082,1.366
758.346,1.368
758.610,1.369
758.875,1.365
759.139,1.360
759.404,1.352
759.668,1.344
759.932,1.344
760.197,1.354
760.462,1.362
760.726,1.363
760.991,1.360
761.255,1.360
761.520,1.360
761.785,1.357
762.049,1.348
762.314,1.342
762.579,1.346
762.844,1.362
763.109,1.373
763.374,1.372
763.639,1.365
763.903,1.354
764.168,1.346
764.433,1.343
764.699,1.355
764.964,1.366
765.229,1.365
765.494,1.355
765.759,1.346
766.024,1.347
766.290,1.356
766.555,1.366
766.820,1.369
767.086,1.368
767.351,1.364
767.616,1.363
767.882,1.359
768.147,1.357
768.413,1.354
768.678,1.350
768.944,1.352
769.209,1.361
769.475,1.375
769.741,1.383
770.006,1.388
770.272,1.390
770.538,1.390
770.804,1.384
771.070,1.379
771.335,1.384
771.601,1.397
771.867,1.405
772.133,1.398
772.399,1.386
772.665,1.369
772.931,1.367
773.197,1.372
773.464,1.384
773.730,1.390
773.996,1.392
774.262,1.389
774.528,1.383
774.795,1.383
775.061,1.394
775.327,1.401
775.594,1.400
775.860,1.387
776.126,1.368
776.393,1.351
776.659,1.343
776.926,1.343
777.193,1.351
777.459,1.356
777.726,1.354
777.992,1.350
778.259,1.344
778.526,1.347
778.793,1.354
779.059,1.364
779.326,1.372
779.593,1.374
779.860,1.381
780.127,1.382
780.394,1.383
780.661,1.378
780.928,1.370
781.195,1.359
781.462,1.351
781.729,1.352
781.996,1.359
782.263,1.365
782.530,1.375
782.797,1.380
783.064,1.374
783.332,1.363
783.599,1.354
783.866,1.357
784.134,1.358
784.401,1.356
784.668,1.353
784.936,1.354
785.203,1.354
785.470,1.349
785.738,1.345
786.005,1.344
786.273,1.344
786.541,1.342
786.808,1.343
787.076,1.344
787.343,1.347
787.611,1.353
787.879,1.364
788.146,1.370
788.414,1.374
788.682,1.369
788.950,1.364
789.217,1.363
789.485,1.374
789.753,1.386
790.021,1.382
790.289,1.363
790.557,1.341
790.825,1.330
791.093,1.338
791.361,1.356
791.629,1.371
791.897,1.375
792.165,1.369
792.433,1.358
792.701,1.342
792.969,1.327
793.237,1.320
793.505,1.329
793.773,1.344
794.042,1.349
794.310,1.345
794.578,1.338
794.846,1.337
795.115,1.336
795.383,1.340
795.651,1.352
795.920,1.360
796.188,1.364
796.456,1.368
796.725,1.373
796.993,1.381
797.261,1.384
797.530,1.380
797.798,1.369
798.067,1.370
798.335,1.379
798.604,1.381
798.872,1.367
799.141,1.352
799.409,1.343
799.678,1.345
799.946,1.354
800.215,1.362
800.483,1.367
800.752,1.368
801.020,1.364
801.289,1.358
801.558,1.355
801.826,1.356
802.095,1.352
802.363,1.351
802.632,1.352
802.901,1.358
803.169,1.363
803.438,1.363
803.707,1.359
803.976,1.349
804.244,1.342
804.513,1.341
804.782,1.338
805.050,1.336
805.319,1.343
805.588,1.357
805.857,1.371
806.125,1.373
806.394,1.366
806.663,1.352
806.931,1.341
807.200,1.335
807.469,1.334
807.738,1.334
808.006,1.338
808.275,1.348
808.544,1.362
808.813,1.369
809.082,1.366
809.350,1.360
809.619,1.358
809.888,1.354
810.157,1.346
810.425,1.339
810.694,1.343
810.963,1.353
811.232,1.353
811.500,1.347
811.769,1.338
812.038,1.339
812.306,1.346
812.575,1.357
812.844,1.363
813.113,1.364
813.381,1.357
813.650,1.358
813.919,1.368
814.187,1.383
814.456,1.390
814.725,1.387
814.993,1.376
815.262,1.365
815.531,1.358
815.799,1.356
816.068,1.351
816.336,1.341
816.605,1.338
816.873,1.344
817.142,1.359
817.411,1.372
817.679,1.379
817.948,1.384
818.216,1.398
818.485,1.428
818.753,1.452
819.021,1.435
819.290,1.392
819.558,1.356
819.827,1.355
820.095,1.368
820.363,1.375
820.632,1.376
820.900,1.372
821.168,1.373
821.437,1.378
821.705,1.382
821.973,1.386
822.241,1.384
822.509,1.383
822.777,1.373
823.046,1.365
823.314,1.365
823.582,1.373
823.850,1.381
824.118,1.388
824.386,1.387
824.654,1.370
824.922,1.350
825.190,1.335
825.457,1.342
825.725,1.352
825.993,1.353
826.261,1.347
826.529,1.345
826.796,1.349
827.064,1.347
827.332,1.346
827.599,1.351
827.867,1.366
828.134,1.373
828.402,1.365
828.669,1.354
828.937,1.347
829.204,1.360
829.471,1.382
829.739,1.399
830.006,1.399
830.273,1.384
830.540,1.364
830.807,1.348
831.075,1.346
831.342,1.354
831.609,1.362
831.876,1.369
832.142,1.373
832.409,1.373
832.676,1.365
832.943,1.352
833.210,1.345
833.476,1.349
833.743,1.361
834.010,1.369
834.276,1.363
834.543,1.352
834.809,1.351
835.076,1.357
835.342,1.362
835.608,1.369
835.874,1.375
836.141,1.374
836.407,1.365
836.673,1.354
836.939,1.354
837.205,1.353
837.471,1.353
837.737,1.355
838.002,1.355
838.268,1.354
838.534,1.353
838.799,1.354
839.065,1.359
839.330,1.359
839.596,1.358
839.861,1.360
840.127,1.368
840.392,1.374
840.657,1.376
840.922,1.382
841.187,1.389
841.452,1.392
841.717,1.390
841.982,1.382
842.247,1.371
842.511,1.361
842.776,1.360
843.041,1.362
843.305,1.355
843.570,1.350
843.834,1.348
844.098,1.348
844.362,1.346
844.627,1.340
844.891,1.342
845.155,1.350
845.419,1.360
845.682,1.368
845.946,1.370
846.210,1.373
846.474,1.370
846.737,1.371
847.001,1.364
847.264,1.353
847.527,1.344
847.790,1.343
848.054,1.350
848.317,1.349
848.580,1.345
848.843,1.348
849.105,1.364
849.368,1.384
849.631,1.397
849.893,1.401
850.156,1.405
850.418,1.404
850.680,1.388
850.943,1.373
851.205,1.374
851.467,1.380
851.729,1.374
851.991,1.363
852.252,1.362
852.514,1.373
852.776,1.382
853.037,1.390
853.298,1.389
853.560,1.378
853.821,1.360
854.082,1.343
854.343,1.343
854.604,1.359
854.865,1.386
855.126,1.402
855.386,1.409
855.647,1.407
855.907,1.403
856.168,1.390
856.428,1.374
856.688,1.363
856.948,1.351
857.208,1.343
857.468,1.342
857.727,1.351
857.987,1.358
858.247,1.362
858.506,1.368
858.765,1.373
859.024,1.368
859.284,1.358
859.543,1.348
859.801,1.341
860.060,1.340
860.319,1.353
860.577,1.368
860.836,1.377
861.094,1.377
861.352,1.375
861.611,1.367
861.869,1.353
862.127,1.346
862.384,1.350
862.642,1.356
862.900,1.366
863.157,1.368
863.414,1.367
863.672,1.354
863.929,1.340
864.186,1.339
864.443,1.349
864.699,1.360
864.956,1.364
865.212,1.352
865.469,1.348
865.725,1.353
865.981,1.366
866.237,1.373
866.493,1.375
866.749,1.369
867.005,1.365
867.260,1.354
867.516,1.346
867.771,1.340
868.026,1.346
868.282,1.364
868.536,1.374
868.791,1.373
869.046,1.357
869.301,1.344
869.555,1.342
869.809,1.351
870.064,1.362
870.318,1.374
870.572,1.384
870.826,1.376
871.079,1.363
871.333,1.351
871.586,1.354
871.840,1.355
872.093,1.354
872.346,1.362
872.599,1.378
872.852,1.399
873.105,1.410
873.357,1.406
873.610,1.392
873.862,1.385
874.114,1.385
874.366,1.388
874.618,1.381
874.870,1.364
875.121,1.349
875.373,1.346
875.624,1.354
875.876,1.361
876.127,1.362
876.378,1.359
876.629,1.358
876.879,1.364
877.130,1.367
877.381,1.358
877.631,1.340
877.881,1.327
878.131,1.336
878.381,1.360
878.631,1.385
878.881,1.395
879.130,1.392
879.380,1.382
879.629,1.376
879.878,1.368
880.127,1.367
880.376,1.368
880.625,1.379
880.873,1.387
881.122,1.394
881.370,1.391
881.618,1.381
881.866,1.372
882.114,1.364
882.362,1.364
882.610,1.367
882.857,1.371
883.105,1.373
883.352,1.363
883.599,1.349
883.846,1.336
884.093,1.334
884.340,1.345
884.586,1.361
884.833,1.369
885.079,1.370
885.325,1.365
885.571,1.365
885.817,1.364
886.063,1.371
886.309,1.378
886.554,1.392
886.800,1.406
887.045,1.412
887.290,1.399
887.535,1.377
887.780,1.365
888.025,1.372
888.270,1.388
888.514,1.404
888.758,1.406
889.003,1.398
889.247,1.374
889.491,1.365
889.735,1.364
889.978,1.376
890.222,1.375
890.465,1.370
890.709,1.364
890.952,1.357
891.195,1.349
891.438,1.342
891.681,1.338
891.923,1.343
892.166,1.351
892.408,1.359
892.651,1.357
892.893,1.350
893.135,1.344
893.377,1.347
893.619,1.353
893.861,1.361
894.102,1.370
894.344,1.386
894.585,1.403
894.826,1.412
895.067,1.403
895.308,1.388
895.549,1.369
895.790,1.359
896.031,1.350
896.271,1.353
896.512,1.365
896.752,1.375
896.992,1.373
897.232,1.362
897.472,1.357
897.712,1.367
897.952,1.382
898.191,1.388
898.431,1.386
898.670,1.389
898.910,1.399
899.149,1.412
899.388,1.416
899.627,1.411
899.866,1.397
900.105,1.381
900.343,1.374
900.582,1.372
900.820,1.376
901.059,1.387
901.297,1.394
901.535,1.381
901.773,1.358
902.011,1.339
902.249,1.331
902.487,1.330
902.725,1.335
902.963,1.346
903.200,1.348
903.438,1.342
903.675,1.340
903.912,1.351
904.150,1.369
904.387,1.377
904.624,1.369
904.861,1.356
905.098,1.349
905.334,1.351
905.571,1.350
905.808,1.354
906.045,1.362
906.281,1.375
906.518,1.380
906.754,1.384
906.990,1.384
907.227,1.382
907.463,1.370
907.699,1.364
907.935,1.367
908.171,1.375
908.407,1.374
908.643,1.371
908.879,1.368
909.115,1.377
909.350,1.383
909.586,1.386
909.822,1.385
910.057,1.395
910.293,1.414
910.528,1.427
910.764,1.420
910.999,1.409
911.235,1.397
911.470,1.398
911.706,1.389
911.941,1.385
912.176,1.379
912.412,1.373
912.647,1.371
912.882,1.374
913.117,1.379
913.352,1.376
913.588,1.364
913.823,1.355
914.058,1.352
914.293,1.356
914.528,1.353
914.763,1.351
914.999,1.349
915.234,1.354
915.469,1.361
915.704,1.363
915.939,1.359
916.174,1.352
916.409,1.350
916.645,1.359
916.880,1.371
917.115,1.378
917.350,1.374
917.586,1.370
917.821,1.369
918.056,1.375
918.292,1.381
918.527,1.379
918.763,1.369
918.998,1.360
919.234,1.369
919.469,1.388
919.705,1.402
919.940,1.402
920.176,1.395
920.412,1.394
920.648,1.388
920.884,1.379
921.120,1.367
921.356,1.361
921.592,1.358
921.828,1.357
922.065,1.360
922.301,1.371
922.537,1.384
922.774,1.391
923.011,1.382
923.247,1.369
923.484,1.367
923.721,1.376
923.958,1.383
924.195,1.378
924.433,1.370
924.670,1.357
924.908,1.345
925.145,1.343
925.383,1.354
925.621,1.367
925.859,1.376
926.097,1.381
926.335,1.382
926.574,1.385
926.813,1.389
927.051,1.391
927.290,1.386
927.529,1.390
927.769,1.403
928.008,1.412
928.248,1.398
928.487,1.382
928.727,1.376
928.967,1.390
929.208,1.400
929.448,1.399
929.689,1.390
929.930,1.375
930.171,1.361
930.413,1.356
930.654,1.360
930.896,1.357
931.138,1.350
931.380,1.342
931.623,1.350
931.865,1.362
932.108,1.374
932.352,1.383
932.595,1.386
932.839,1.390
933.083,1.383
933.327,1.374
933.571,1.364
933.816,1.370
934.061,1.378
934.307,1.380
934.552,1.368
934.798,1.359
935.045,1.359
935.291,1.366
935.538,1.369
935.785,1.376
936.033,1.381
936.281,1.386
936.529,1.386
936.777,1.385
937.026,1.377
937.275,1.369
937.525,1.360
937.775,1.354
938.025,1.350
938.276,1.346
938.527,1.347
938.778,1.344
939.030,1.342
939.282,1.340
939.535,1.343
939.788,1.354
940.041,1.357
940.295,1.357
940.550,1.359
940.804,1.371
941.059,1.381
941.315,1.373
941.571,1.357
941.828,1.346
942.085,1.344
942.342,1.349
942.600,1.351
942.858,1.352
943.117,1.346
943.377,1.343
943.636,1.336
943.897,1.334
944.158,1.339
944.419,1.351
944.681,1.360
944.944,1.364
945.207,1.369
945.470,1.375
945.734,1.379
945.999,1.387
946.264,1.397
946.530,1.401
946.797,1.399
947.064,1.393
947.331,1.385
947.600,1.372
947.869,1.361
948.138,1.352
948.408,1.346
948.679,1.346
948.950,1.352
949.222,1.351
949.495,1.347
949.768,1.349
950.043,1.361
