Wavelength (nm),Intensity Source #76,,C:/Users/Brend/Desktop/LED Spectras v2/Spectrometer Data.sp,,,Source #76,
379.792,1.832,,2018-06-14 09:26:14,,Integration Time,188 ms,
380.000,1.828,,Analyze Light,,Number of Scans to Average,25,
380.209,1.823,,,,Smoothing,1,
380.418,1.837
380.627,1.855
380.837,1.870
381.048,1.877
381.259,1.879
381.471,1.880
381.683,1.885
381.896,1.897
382.110,1.905
382.324,1.921
382.538,1.940
382.753,1.958
382.969,1.954
383.185,1.943
383.402,1.932
383.619,1.941
383.837,1.956
384.055,1.978
384.274,1.995
384.493,2.006
384.712,2.012
384.932,2.021
385.153,2.030
385.374,2.039
385.596,2.047
385.818,2.063
386.040,2.083
386.263,2.102
386.487,2.112
386.710,2.118
386.935,2.110
387.159,2.106
387.385,2.102
387.610,2.109
387.836,2.118
388.063,2.129
388.289,2.136
388.517,2.144
388.744,2.152
388.972,2.171
389.201,2.184
389.430,2.196
389.659,2.201
389.889,2.211
390.119,2.221
390.349,2.233
390.580,2.245
390.811,2.252
391.042,2.253
391.274,2.257
391.507,2.267
391.739,2.278
391.972,2.280
392.205,2.285
392.439,2.293
392.673,2.306
392.907,2.318
393.142,2.337
393.377,2.353
393.612,2.371
393.848,2.381
394.084,2.390
394.320,2.395
394.557,2.407
394.794,2.416
395.031,2.431
395.269,2.444
395.507,2.460
395.745,2.467
395.983,2.475
396.222,2.486
396.461,2.510
396.700,2.533
396.940,2.549
397.180,2.553
397.420,2.550
397.660,2.548
397.901,2.552
398.142,2.561
398.383,2.568
398.625,2.569
398.866,2.579
399.108,2.603
399.351,2.639
399.593,2.651
399.836,2.656
400.079,2.646
400.322,2.647
400.566,2.644
400.809,2.645
401.053,2.648
401.298,2.660
401.542,2.682
401.787,2.708
402.031,2.730
402.277,2.747
402.522,2.755
402.767,2.763
403.013,2.758
403.259,2.762
403.505,2.763
403.752,2.773
403.998,2.778
404.245,2.801
404.492,2.828
404.739,2.847
404.986,2.851
405.234,2.852
405.482,2.853
405.730,2.854
405.978,2.860
406.226,2.868
406.475,2.869
406.723,2.871
406.972,2.880
407.221,2.899
407.470,2.910
407.720,2.924
407.969,2.924
408.219,2.939
408.469,2.952
408.719,2.968
408.969,2.973
409.219,2.982
409.470,2.993
409.720,3.014
409.971,3.030
410.222,3.056
410.473,3.069
410.724,3.077
410.976,3.083
411.227,3.097
411.479,3.110
411.731,3.120
411.983,3.123
412.235,3.135
412.487,3.137
412.740,3.148
412.992,3.151
413.245,3.164
413.497,3.167
413.750,3.179
414.003,3.180
414.257,3.183
414.510,3.179
414.763,3.193
415.017,3.209
415.270,3.229
415.524,3.235
415.778,3.236
416.032,3.230
416.286,3.236
416.540,3.245
416.794,3.266
417.049,3.276
417.303,3.290
417.558,3.297
417.812,3.303
418.067,3.300
418.322,3.298
418.577,3.293
418.832,3.291
419.088,3.280
419.343,3.282
419.598,3.279
419.854,3.291
420.109,3.296
420.365,3.314
420.621,3.319
420.876,3.329
421.132,3.331
421.388,3.333
421.645,3.329
421.901,3.335
422.157,3.341
422.413,3.352
422.670,3.349
422.926,3.343
423.183,3.330
423.439,3.339
423.696,3.354
423.953,3.393
424.210,3.422
424.467,3.442
424.724,3.438
424.981,3.429
425.238,3.425
425.495,3.444
425.753,3.461
426.010,3.484
426.267,3.497
426.525,3.525
426.782,3.553
427.040,3.587
427.298,3.622
427.555,3.670
427.813,3.708
428.071,3.751
428.329,3.788
428.587,3.836
428.845,3.883
429.103,3.938
429.361,3.987
429.619,4.043
429.878,4.098
430.136,4.166
430.394,4.227
430.653,4.314
430.911,4.414
431.170,4.536
431.428,4.641
431.687,4.739
431.946,4.831
432.204,4.937
432.463,5.057
432.722,5.186
432.981,5.313
433.240,5.455
433.499,5.605
433.758,5.781
434.017,5.939
434.276,6.106
434.535,6.261
434.794,6.440
435.053,6.626
435.312,6.834
435.572,7.039
435.831,7.261
436.090,7.492
436.350,7.745
436.609,8.003
436.869,8.273
437.128,8.545
437.388,8.827
437.647,9.120
437.907,9.447
438.166,9.783
438.426,10.128
438.686,10.467
438.946,10.840
439.205,11.227
439.465,11.643
439.725,12.072
439.985,12.523
440.245,12.967
440.505,13.428
440.765,13.901
441.025,14.400
441.285,14.906
441.545,15.437
441.805,15.984
442.065,16.559
442.325,17.155
442.585,17.793
442.846,18.453
443.106,19.147
443.366,19.868
443.626,20.616
443.887,21.398
444.147,22.198
444.407,23.031
444.668,23.883
444.928,24.790
445.189,25.756
445.449,26.761
445.710,27.802
445.970,28.871
446.231,29.995
446.491,31.168
446.752,32.388
447.012,33.638
447.273,34.943
447.534,36.294
447.794,37.698
448.055,39.135
448.316,40.648
448.577,42.237
448.837,43.898
449.098,45.610
449.359,47.373
449.620,49.168
449.881,50.990
450.142,52.845
450.403,54.768
450.664,56.749
450.924,58.782
451.185,60.855
451.446,62.946
451.707,65.061
451.969,67.187
452.230,69.315
452.491,71.440
452.752,73.540
453.013,75.612
453.274,77.651
453.535,79.635
453.796,81.518
454.058,83.223
454.319,84.700
454.580,85.928
454.841,86.947
455.103,87.804
455.364,88.575
455.625,89.264
455.887,89.871
456.148,90.405
456.409,90.865
456.671,91.260
456.932,91.567
457.194,91.799
457.455,91.974
457.716,92.101
457.978,92.188
458.239,92.232
458.501,92.234
458.763,92.186
459.024,92.092
459.286,91.955
459.547,91.777
459.809,91.542
460.071,91.251
460.332,90.893
460.594,90.479
460.856,90.012
461.117,89.481
461.379,88.888
461.641,88.223
461.903,87.482
462.164,86.622
462.426,85.626
462.688,84.436
462.950,83.042
463.212,81.468
463.474,79.795
463.736,78.074
463.998,76.360
464.260,74.686
464.522,73.061
464.784,71.472
465.046,69.912
465.308,68.408
465.570,66.966
465.832,65.587
466.094,64.245
466.356,62.933
466.618,61.636
466.880,60.382
467.142,59.173
467.405,58.024
467.667,56.939
467.929,55.911
468.191,54.932
468.454,53.977
468.716,53.040
468.978,52.097
469.241,51.170
469.503,50.260
469.765,49.411
470.028,48.603
470.290,47.833
470.552,47.082
470.815,46.358
471.077,45.633
471.340,44.924
471.602,44.192
471.865,43.463
472.128,42.716
472.390,41.998
472.653,41.269
472.915,40.545
473.178,39.808
473.441,39.083
473.703,38.353
473.966,37.598
474.229,36.832
474.492,36.048
474.755,35.261
475.017,34.479
475.280,33.722
475.543,32.980
475.806,32.227
476.069,31.460
476.332,30.691
476.595,29.915
476.858,29.138
477.121,28.368
477.384,27.637
477.647,26.934
477.910,26.248
478.173,25.551
478.436,24.862
478.699,24.202
478.962,23.565
479.226,22.957
479.489,22.343
479.752,21.748
480.015,21.155
480.279,20.579
480.542,20.017
480.805,19.478
481.069,18.947
481.332,18.443
481.595,17.953
481.859,17.511
482.122,17.073
482.386,16.645
482.649,16.228
482.913,15.825
483.177,15.432
483.440,15.045
483.704,14.684
483.967,14.352
484.231,14.026
484.495,13.717
484.759,13.415
485.022,13.119
485.286,12.811
485.550,12.494
485.814,12.172
486.078,11.871
486.342,11.585
486.606,11.334
486.869,11.079
487.133,10.843
487.397,10.604
487.662,10.380
487.926,10.147
488.190,9.921
488.454,9.681
488.718,9.453
488.982,9.210
489.246,8.993
489.511,8.769
489.775,8.563
490.039,8.353
490.304,8.153
490.568,7.937
490.832,7.728
491.097,7.529
491.361,7.355
491.626,7.173
491.890,6.994
492.155,6.809
492.419,6.641
492.684,6.457
492.949,6.274
493.213,6.092
493.478,5.936
493.743,5.781
494.008,5.616
494.272,5.441
494.537,5.291
494.802,5.159
495.067,5.046
495.332,4.925
495.597,4.803
495.862,4.662
496.127,4.533
496.392,4.400
496.657,4.276
496.922,4.149
497.187,4.045
497.452,3.950
497.718,3.880
497.983,3.799
498.248,3.719
498.513,3.622
498.779,3.546
499.044,3.474
499.310,3.399
499.575,3.305
499.841,3.223
500.106,3.147
500.372,3.077
500.637,3.008
500.903,2.962
501.168,2.914
501.434,2.860
501.700,2.787
501.966,2.731
502.231,2.676
502.497,2.629
502.763,2.573
503.029,2.526
503.295,2.485
503.561,2.450
503.827,2.414
504.093,2.381
504.359,2.347
504.625,2.315
504.891,2.280
505.157,2.252
505.423,2.210
505.690,2.165
505.956,2.121
506.222,2.097
506.489,2.092
506.755,2.093
507.021,2.087
507.288,2.072
507.554,2.042
507.821,2.014
508.087,1.988
508.354,1.977
508.621,1.962
508.887,1.941
509.154,1.915
509.421,1.897
509.687,1.879
509.954,1.859
510.221,1.835
510.488,1.827
510.755,1.822
511.022,1.820
511.289,1.800
511.556,1.777
511.823,1.756
512.090,1.754
512.357,1.747
512.624,1.739
512.891,1.722
513.159,1.706
513.426,1.687
513.693,1.672
513.960,1.663
514.228,1.657
514.495,1.650
514.763,1.643
515.030,1.631
515.298,1.619
515.565,1.613
515.833,1.612
516.100,1.607
516.368,1.598
516.636,1.586
516.904,1.579
517.171,1.567
517.439,1.558
517.707,1.544
517.975,1.540
518.243,1.538
518.511,1.535
518.779,1.515
519.047,1.503
519.315,1.494
519.583,1.489
519.851,1.471
520.119,1.459
520.387,1.453
520.656,1.453
520.924,1.456
521.192,1.461
521.461,1.464
521.729,1.466
521.997,1.464
522.266,1.465
522.534,1.462
522.803,1.462
523.071,1.457
523.340,1.445
523.609,1.432
523.877,1.421
524.146,1.415
524.415,1.411
524.684,1.413
524.952,1.413
525.221,1.413
525.490,1.418
525.759,1.425
526.028,1.427
526.297,1.415
526.566,1.404
526.835,1.396
527.104,1.396
527.373,1.400
527.642,1.400
527.912,1.389
528.181,1.376
528.450,1.371
528.719,1.381
528.989,1.399
529.258,1.415
529.528,1.418
529.797,1.408
530.067,1.397
530.336,1.390
530.606,1.383
530.875,1.370
531.145,1.362
531.414,1.364
531.684,1.372
531.954,1.371
532.224,1.361
532.493,1.340
532.763,1.328
533.033,1.326
533.303,1.334
533.573,1.340
533.843,1.335
534.113,1.329
534.383,1.322
534.653,1.326
534.923,1.335
535.193,1.348
535.463,1.361
535.733,1.370
536.004,1.378
536.274,1.376
536.544,1.363
536.814,1.346
537.085,1.336
537.355,1.342
537.626,1.358
537.896,1.369
538.166,1.370
538.437,1.365
538.707,1.361
538.978,1.359
539.249,1.363
539.519,1.363
539.790,1.356
540.061,1.351
540.331,1.357
540.602,1.375
540.873,1.389
541.144,1.395
541.414,1.392
541.685,1.387
541.956,1.382
542.227,1.377
542.498,1.369
542.769,1.366
543.040,1.369
543.311,1.384
543.582,1.399
543.853,1.405
544.124,1.407
544.396,1.409
544.667,1.411
544.938,1.404
545.209,1.380
545.480,1.361
545.752,1.353
546.023,1.360
546.294,1.358
546.566,1.346
546.837,1.331
547.109,1.324
547.380,1.319
547.652,1.315
547.923,1.312
548.195,1.318
548.466,1.334
548.738,1.351
549.009,1.356
549.281,1.352
549.553,1.334
549.824,1.314
550.096,1.300
550.368,1.300
550.640,1.305
550.911,1.313
551.183,1.329
551.455,1.351
551.727,1.363
551.999,1.354
552.271,1.333
552.543,1.313
552.815,1.304
553.087,1.310
553.359,1.323
553.631,1.333
553.903,1.334
554.175,1.337
554.447,1.343
554.719,1.345
554.991,1.342
555.263,1.336
555.535,1.328
555.808,1.315
556.080,1.301
556.352,1.296
556.624,1.297
556.897,1.299
557.169,1.300
557.441,1.297
557.714,1.292
557.986,1.289
558.258,1.288
558.531,1.299
558.803,1.307
559.076,1.312
559.348,1.306
559.621,1.299
559.893,1.297
560.166,1.298
560.438,1.294
560.711,1.285
560.983,1.282
561.256,1.285
561.528,1.294
561.801,1.306
562.074,1.317
562.346,1.326
562.619,1.329
562.892,1.325
563.164,1.317
563.437,1.315
563.710,1.311
563.983,1.302
564.255,1.289
564.528,1.292
564.801,1.307
565.074,1.317
565.346,1.314
565.619,1.308
565.892,1.310
566.165,1.308
566.438,1.295
566.711,1.279
566.984,1.269
567.257,1.268
567.529,1.278
567.802,1.301
568.075,1.321
568.348,1.323
568.621,1.315
568.894,1.307
569.167,1.304
569.440,1.296
569.713,1.282
569.986,1.276
570.259,1.272
570.532,1.280
570.805,1.286
571.078,1.297
571.351,1.305
571.625,1.308
571.898,1.300
572.171,1.284
572.444,1.274
572.717,1.283
572.990,1.296
573.263,1.298
573.536,1.283
573.809,1.264
574.083,1.255
574.356,1.260
574.629,1.279
574.902,1.291
575.175,1.289
575.448,1.276
575.721,1.268
575.995,1.268
576.268,1.274
576.541,1.286
576.814,1.295
577.087,1.298
577.361,1.294
577.634,1.291
577.907,1.280
578.180,1.268
578.453,1.259
578.727,1.261
579.000,1.264
579.273,1.270
579.546,1.281
579.820,1.294
580.093,1.297
580.366,1.288
580.639,1.275
580.913,1.270
581.186,1.271
581.459,1.271
581.732,1.263
582.005,1.258
582.279,1.256
582.552,1.261
582.825,1.264
583.098,1.269
583.372,1.272
583.645,1.274
583.918,1.277
584.191,1.277
584.464,1.275
584.738,1.274
585.011,1.271
585.284,1.269
585.557,1.269
585.831,1.277
586.104,1.296
586.377,1.317
586.650,1.325
586.923,1.322
587.196,1.309
587.470,1.295
587.743,1.286
588.016,1.279
588.289,1.282
588.562,1.284
588.835,1.282
589.109,1.275
589.382,1.267
589.655,1.263
589.928,1.260
590.201,1.258
590.474,1.267
590.747,1.282
591.020,1.297
591.293,1.299
591.567,1.294
591.840,1.284
592.113,1.275
592.386,1.266
592.659,1.260
592.932,1.260
593.205,1.265
593.478,1.267
593.751,1.261
594.024,1.254
594.297,1.246
594.570,1.247
594.843,1.256
595.116,1.272
595.389,1.280
595.662,1.276
595.934,1.272
596.207,1.279
596.480,1.291
596.753,1.299
597.026,1.298
597.299,1.295
597.572,1.292
597.844,1.285
598.117,1.273
598.390,1.261
598.663,1.255
598.936,1.259
599.208,1.263
599.481,1.269
599.754,1.272
600.026,1.266
600.299,1.255
600.572,1.246
600.844,1.239
601.117,1.233
601.390,1.231
601.662,1.232
601.935,1.233
602.207,1.236
602.480,1.243
602.752,1.246
603.025,1.239
603.297,1.232
603.570,1.237
603.842,1.254
604.115,1.269
604.387,1.279
604.660,1.275
604.932,1.270
605.204,1.271
605.477,1.283
605.749,1.300
606.021,1.312
606.294,1.316
606.566,1.307
606.838,1.297
607.110,1.295
607.383,1.303
607.655,1.312
607.927,1.320
608.199,1.326
608.471,1.325
608.743,1.316
609.015,1.309
609.287,1.304
609.559,1.304
609.831,1.306
610.103,1.308
610.375,1.308
610.647,1.304
610.919,1.298
611.191,1.294
611.463,1.296
611.735,1.294
612.007,1.286
612.278,1.275
612.550,1.270
612.822,1.276
613.094,1.282
613.365,1.284
613.637,1.285
613.909,1.283
614.180,1.282
614.452,1.276
614.723,1.270
614.995,1.265
615.266,1.266
615.538,1.278
615.809,1.286
616.081,1.283
616.352,1.272
616.623,1.265
616.895,1.265
617.166,1.263
617.437,1.259
617.709,1.259
617.980,1.265
618.251,1.273
618.522,1.282
618.793,1.296
619.065,1.312
619.336,1.306
619.607,1.285
619.878,1.268
620.149,1.274
620.420,1.281
620.691,1.278
620.962,1.279
621.232,1.286
621.503,1.286
621.774,1.277
622.045,1.270
622.316,1.276
622.586,1.286
622.857,1.295
623.128,1.296
623.398,1.292
623.669,1.283
623.940,1.272
624.210,1.260
624.481,1.260
624.751,1.264
625.021,1.268
625.292,1.265
625.562,1.263
625.833,1.262
626.103,1.259
626.373,1.253
626.643,1.255
626.914,1.262
627.184,1.270
627.454,1.270
627.724,1.264
627.994,1.259
628.264,1.257
628.534,1.254
628.804,1.253
629.074,1.256
629.344,1.265
629.614,1.266
629.884,1.258
630.154,1.246
630.424,1.235
630.693,1.227
630.963,1.216
631.233,1.207
631.502,1.209
631.772,1.224
632.041,1.240
632.311,1.248
632.581,1.247
632.850,1.242
633.119,1.232
633.389,1.223
633.658,1.220
633.928,1.227
634.197,1.236
634.466,1.247
634.735,1.254
635.004,1.254
635.274,1.248
635.543,1.241
635.812,1.240
636.081,1.243
636.350,1.247
636.619,1.251
636.888,1.254
637.157,1.257
637.426,1.262
637.694,1.261
637.963,1.255
638.232,1.243
638.501,1.235
638.769,1.234
639.038,1.240
639.307,1.253
639.575,1.264
639.844,1.261
640.112,1.251
640.381,1.237
640.649,1.234
640.917,1.237
641.186,1.243
641.454,1.245
641.722,1.243
641.991,1.240
642.259,1.230
642.527,1.226
642.795,1.222
643.063,1.217
643.331,1.212
643.599,1.211
643.867,1.221
644.135,1.232
644.403,1.242
644.671,1.247
644.939,1.254
645.206,1.257
645.474,1.260
645.742,1.253
646.009,1.240
646.277,1.233
646.545,1.240
646.812,1.255
647.080,1.267
647.347,1.272
647.615,1.268
647.882,1.251
648.149,1.232
648.417,1.220
648.684,1.224
648.951,1.238
649.219,1.251
649.486,1.254
649.753,1.246
650.020,1.236
650.287,1.228
650.554,1.227
650.821,1.228
651.088,1.232
651.355,1.240
651.622,1.245
651.889,1.245
652.155,1.235
652.422,1.232
652.689,1.240
652.956,1.250
653.222,1.263
653.489,1.278
653.755,1.287
654.022,1.280
654.288,1.260
654.555,1.250
654.821,1.250
655.088,1.256
655.354,1.263
655.620,1.271
655.887,1.276
656.153,1.278
656.419,1.277
656.685,1.272
656.951,1.267
657.217,1.260
657.483,1.254
657.749,1.250
658.015,1.249
658.281,1.249
658.547,1.241
658.813,1.233
659.079,1.226
659.345,1.222
659.610,1.221
659.876,1.221
660.142,1.227
660.407,1.230
660.673,1.236
660.939,1.240
661.204,1.241
661.470,1.241
661.735,1.241
662.000,1.245
662.266,1.245
662.531,1.242
662.796,1.238
663.062,1.230
663.327,1.222
663.592,1.220
663.857,1.221
664.122,1.223
664.388,1.221
664.653,1.224
664.918,1.231
665.183,1.236
665.448,1.239
665.712,1.241
665.977,1.248
666.242,1.250
666.507,1.239
666.772,1.226
667.037,1.217
667.301,1.220
667.566,1.223
667.831,1.225
668.095,1.228
668.360,1.231
668.624,1.227
668.889,1.225
669.153,1.218
669.418,1.218
669.682,1.220
669.946,1.227
670.211,1.238
670.475,1.247
670.739,1.259
671.004,1.275
671.268,1.304
671.532,1.331
671.796,1.323
672.060,1.300
672.324,1.279
672.588,1.286
672.852,1.300
673.116,1.337
673.380,1.367
673.644,1.346
673.908,1.293
674.172,1.246
674.436,1.243
674.700,1.243
674.963,1.247
675.227,1.250
675.491,1.249
675.754,1.244
676.018,1.238
676.282,1.241
676.545,1.240
676.809,1.237
677.072,1.227
677.336,1.223
677.599,1.225
677.863,1.223
678.126,1.225
678.389,1.233
678.653,1.243
678.916,1.242
679.179,1.230
679.442,1.224
679.706,1.228
679.969,1.232
680.232,1.238
680.495,1.248
680.758,1.258
681.021,1.257
681.284,1.243
681.547,1.232
681.810,1.237
682.073,1.255
682.336,1.266
682.599,1.262
682.862,1.254
683.125,1.252
683.388,1.258
683.651,1.260
683.913,1.256
684.176,1.245
684.439,1.232
684.702,1.219
684.964,1.212
685.227,1.211
685.490,1.221
685.752,1.238
686.015,1.248
686.277,1.247
686.540,1.236
686.802,1.225
687.065,1.223
687.327,1.225
687.590,1.226
687.852,1.215
688.115,1.201
688.377,1.194
688.639,1.198
688.902,1.204
689.164,1.214
689.426,1.228
689.689,1.237
689.951,1.236
690.213,1.231
690.475,1.228
690.737,1.227
691.000,1.223
691.262,1.223
691.524,1.232
691.786,1.247
692.048,1.260
692.310,1.256
692.572,1.237
692.834,1.215
693.096,1.210
693.358,1.223
693.620,1.242
693.882,1.255
694.144,1.257
694.406,1.249
694.668,1.242
694.930,1.234
695.192,1.231
695.453,1.230
695.715,1.232
695.977,1.229
696.239,1.222
696.501,1.221
696.762,1.230
697.024,1.237
697.286,1.234
697.548,1.228
697.809,1.224
698.071,1.220
698.333,1.216
698.594,1.214
698.856,1.222
699.118,1.228
699.379,1.234
699.641,1.241
699.902,1.245
700.164,1.244
700.426,1.238
700.687,1.230
700.949,1.228
701.210,1.226
701.472,1.222
701.733,1.217
701.995,1.218
702.256,1.221
702.518,1.223
702.779,1.223
703.041,1.235
703.302,1.251
703.563,1.253
703.825,1.242
704.086,1.230
704.348,1.228
704.609,1.235
704.871,1.248
705.132,1.257
705.393,1.250
705.655,1.238
705.916,1.231
706.177,1.234
706.439,1.238
706.700,1.239
706.961,1.238
707.223,1.230
707.484,1.214
707.745,1.200
708.007,1.189
708.268,1.182
708.529,1.170
708.790,1.152
709.052,1.142
709.313,1.141
709.574,1.147
709.835,1.149
710.097,1.142
710.358,1.130
710.619,1.119
710.881,1.114
711.142,1.112
711.403,1.111
711.664,1.110
711.926,1.105
712.187,1.105
712.448,1.107
712.709,1.114
712.970,1.121
713.232,1.129
713.493,1.136
713.754,1.139
714.015,1.144
714.277,1.149
714.538,1.157
714.799,1.166
715.060,1.171
715.322,1.169
715.583,1.160
715.844,1.150
716.105,1.137
716.367,1.130
716.628,1.130
716.889,1.131
717.150,1.122
717.411,1.112
717.673,1.110
717.934,1.117
718.195,1.125
718.457,1.123
718.718,1.114
718.979,1.109
719.240,1.112
719.502,1.119
719.763,1.123
720.024,1.126
720.286,1.128
720.547,1.121
720.808,1.113
721.069,1.108
721.331,1.117
721.592,1.132
721.853,1.141
722.115,1.144
722.376,1.141
722.638,1.136
722.899,1.131
723.160,1.123
723.422,1.114
723.683,1.111
723.944,1.115
724.206,1.117
724.467,1.118
724.729,1.121
724.990,1.134
725.252,1.142
725.513,1.135
725.775,1.119
726.036,1.106
726.298,1.106
726.559,1.113
726.821,1.116
727.082,1.116
727.344,1.112
727.605,1.107
727.867,1.101
728.128,1.101
728.390,1.103
728.652,1.116
728.913,1.134
729.175,1.146
729.436,1.147
729.698,1.142
729.960,1.138
730.221,1.132
730.483,1.123
730.745,1.119
731.007,1.118
731.268,1.117
731.530,1.115
731.792,1.116
732.054,1.118
732.315,1.123
732.577,1.126
732.839,1.121
733.101,1.116
733.363,1.113
733.625,1.116
733.887,1.120
734.149,1.124
734.411,1.130
734.673,1.134
734.935,1.130
735.197,1.122
735.459,1.121
735.721,1.125
735.983,1.124
736.245,1.116
736.507,1.112
736.769,1.118
737.031,1.124
737.293,1.120
737.555,1.113
737.818,1.104
738.080,1.102
738.342,1.100
738.604,1.101
738.867,1.101
739.129,1.097
739.391,1.091
739.654,1.088
739.916,1.092
740.178,1.104
740.441,1.118
740.703,1.123
740.966,1.117
741.228,1.109
741.491,1.106
741.753,1.111
742.016,1.111
742.278,1.109
742.541,1.106
742.804,1.110
743.066,1.120
743.329,1.124
743.592,1.121
743.854,1.121
744.117,1.129
744.380,1.137
744.643,1.132
744.905,1.121
745.168,1.113
745.431,1.108
745.694,1.105
745.957,1.103
746.220,1.103
746.483,1.102
746.746,1.102
747.009,1.114
747.272,1.134
747.535,1.150
747.798,1.151
748.061,1.136
748.324,1.116
748.588,1.103
748.851,1.100
749.114,1.104
749.377,1.110
749.641,1.113
749.904,1.120
750.167,1.130
750.431,1.142
750.694,1.150
750.958,1.152
751.221,1.144
751.485,1.126
751.748,1.113
752.012,1.116
752.275,1.130
752.539,1.132
752.803,1.124
753.066,1.111
753.330,1.107
753.594,1.108
753.857,1.112
754.121,1.118
754.385,1.125
754.649,1.130
754.913,1.133
755.177,1.138
755.441,1.135
755.705,1.123
755.969,1.110
756.233,1.111
756.497,1.117
756.761,1.117
757.025,1.110
757.289,1.103
757.553,1.105
757.818,1.115
758.082,1.125
758.346,1.132
758.610,1.133
758.875,1.130
759.139,1.127
759.404,1.121
759.668,1.117
759.932,1.121
760.197,1.130
760.462,1.135
760.726,1.132
760.991,1.128
761.255,1.127
761.520,1.129
761.785,1.125
762.049,1.113
762.314,1.104
762.579,1.108
762.844,1.121
763.109,1.132
763.374,1.131
763.639,1.126
763.903,1.118
764.168,1.111
764.433,1.114
764.699,1.129
764.964,1.140
765.229,1.137
765.494,1.123
765.759,1.114
766.024,1.112
766.290,1.116
766.555,1.122
766.820,1.127
767.086,1.132
767.351,1.136
767.616,1.138
767.882,1.132
768.147,1.126
768.413,1.116
768.678,1.108
768.944,1.107
769.209,1.119
769.475,1.135
769.741,1.147
770.006,1.151
770.272,1.150
770.538,1.144
770.804,1.138
771.070,1.134
771.335,1.141
771.601,1.152
771.867,1.156
772.133,1.152
772.399,1.142
772.665,1.129
772.931,1.125
773.197,1.131
773.464,1.144
773.730,1.151
773.996,1.152
774.262,1.155
774.528,1.156
774.795,1.157
775.061,1.158
775.327,1.154
775.594,1.145
775.860,1.130
776.126,1.114
776.393,1.102
776.659,1.095
776.926,1.094
777.193,1.101
777.459,1.107
777.726,1.110
777.992,1.106
778.259,1.102
778.526,1.104
778.793,1.106
779.059,1.111
779.326,1.116
779.593,1.124
779.860,1.134
780.127,1.138
780.394,1.140
780.661,1.137
780.928,1.131
781.195,1.120
781.462,1.111
781.729,1.113
781.996,1.119
782.263,1.124
782.530,1.129
782.797,1.129
783.064,1.123
783.332,1.114
783.599,1.111
783.866,1.116
784.134,1.118
784.401,1.116
784.668,1.111
784.936,1.108
785.203,1.103
785.470,1.096
785.738,1.094
786.005,1.096
786.273,1.096
786.541,1.094
786.808,1.096
787.076,1.103
787.343,1.111
787.611,1.123
787.879,1.131
788.146,1.133
788.414,1.130
788.682,1.126
788.950,1.126
789.217,1.126
789.485,1.136
789.753,1.144
790.021,1.139
790.289,1.121
790.557,1.104
790.825,1.096
791.093,1.104
791.361,1.119
791.629,1.133
791.897,1.139
792.165,1.135
792.433,1.126
792.701,1.110
792.969,1.096
793.237,1.092
793.505,1.101
793.773,1.112
794.042,1.111
794.310,1.103
794.578,1.100
794.846,1.101
795.115,1.103
795.383,1.106
795.651,1.114
795.920,1.120
796.188,1.122
796.456,1.124
796.725,1.128
796.993,1.133
797.261,1.132
797.530,1.130
797.798,1.128
798.067,1.134
798.335,1.145
798.604,1.146
798.872,1.134
799.141,1.119
799.409,1.112
799.678,1.117
799.946,1.126
800.215,1.129
800.483,1.126
800.752,1.122
801.020,1.116
801.289,1.113
801.558,1.113
801.826,1.115
802.095,1.112
802.363,1.112
802.632,1.116
802.901,1.127
803.169,1.132
803.438,1.129
803.707,1.114
803.976,1.101
804.244,1.100
804.513,1.105
804.782,1.105
805.050,1.103
805.319,1.107
805.588,1.118
805.857,1.125
806.125,1.126
806.394,1.119
806.663,1.107
806.931,1.098
807.200,1.095
807.469,1.100
807.738,1.099
808.006,1.097
808.275,1.104
808.544,1.122
808.813,1.135
809.082,1.133
809.350,1.121
809.619,1.113
809.888,1.108
810.157,1.106
810.425,1.104
810.694,1.109
810.963,1.112
811.232,1.107
811.500,1.095
811.769,1.085
812.038,1.087
812.306,1.098
812.575,1.112
812.844,1.122
813.113,1.124
813.381,1.120
813.650,1.121
813.919,1.129
814.187,1.135
814.456,1.139
814.725,1.139
814.993,1.136
815.262,1.132
815.531,1.127
815.799,1.124
816.068,1.115
816.336,1.106
816.605,1.102
816.873,1.105
817.142,1.115
817.411,1.127
817.679,1.135
817.948,1.144
818.216,1.157
818.485,1.188
818.753,1.210
819.021,1.192
819.290,1.150
819.558,1.118
819.827,1.122
820.095,1.133
820.363,1.138
820.632,1.137
820.900,1.131
821.168,1.129
821.437,1.131
821.705,1.134
821.973,1.133
822.241,1.130
822.509,1.128
822.777,1.123
823.046,1.121
823.314,1.126
823.582,1.135
823.850,1.140
824.118,1.140
824.386,1.134
824.654,1.116
824.922,1.098
825.190,1.089
825.457,1.102
825.725,1.117
825.993,1.120
826.261,1.114
826.529,1.112
826.796,1.114
827.064,1.114
827.332,1.114
827.599,1.120
827.867,1.136
828.134,1.143
828.402,1.137
828.669,1.124
828.937,1.117
829.204,1.130
829.471,1.148
829.739,1.160
830.006,1.156
830.273,1.141
830.540,1.125
830.807,1.109
831.075,1.104
831.342,1.110
831.609,1.120
831.876,1.132
832.142,1.142
832.409,1.148
832.676,1.141
832.943,1.125
833.210,1.112
833.476,1.108
833.743,1.114
834.010,1.115
834.276,1.104
834.543,1.094
834.809,1.093
835.076,1.099
835.342,1.105
835.608,1.118
835.874,1.128
836.141,1.129
836.407,1.121
836.673,1.113
836.939,1.115
837.205,1.114
837.471,1.113
837.737,1.109
838.002,1.104
838.268,1.104
838.534,1.109
838.799,1.113
839.065,1.117
839.330,1.118
839.596,1.122
839.861,1.127
840.127,1.132
840.392,1.133
840.657,1.133
840.922,1.140
841.187,1.150
841.452,1.156
841.717,1.154
841.982,1.143
842.247,1.128
842.511,1.116
842.776,1.114
843.041,1.117
843.305,1.112
843.570,1.107
843.834,1.104
844.098,1.108
844.362,1.112
844.627,1.112
844.891,1.111
845.155,1.115
845.419,1.122
845.682,1.128
845.946,1.131
846.210,1.132
846.474,1.129
846.737,1.126
847.001,1.120
847.264,1.111
847.527,1.105
847.790,1.106
848.054,1.107
848.317,1.102
848.580,1.096
848.843,1.099
849.105,1.112
849.368,1.130
849.631,1.141
849.893,1.150
850.156,1.156
850.418,1.155
850.680,1.136
850.943,1.120
851.205,1.116
851.467,1.119
851.729,1.118
851.991,1.118
852.252,1.125
852.514,1.134
852.776,1.141
853.037,1.147
853.298,1.145
853.560,1.135
853.821,1.119
854.082,1.105
854.343,1.101
854.604,1.114
854.865,1.140
855.126,1.161
855.386,1.171
855.647,1.171
855.907,1.162
856.168,1.148
856.428,1.131
856.688,1.121
856.948,1.108
857.208,1.100
857.468,1.101
857.727,1.111
857.987,1.117
858.247,1.124
858.506,1.132
858.765,1.133
859.024,1.122
859.284,1.109
859.543,1.101
859.801,1.098
860.060,1.100
860.319,1.113
860.577,1.128
860.836,1.136
861.094,1.140
861.352,1.140
861.611,1.135
861.869,1.122
862.127,1.116
862.384,1.122
862.642,1.128
862.900,1.135
863.157,1.137
863.414,1.133
863.672,1.119
863.929,1.103
864.186,1.099
864.443,1.106
864.699,1.120
864.956,1.125
865.212,1.118
865.469,1.112
865.725,1.116
865.981,1.124
866.237,1.129
866.493,1.126
866.749,1.117
867.005,1.110
867.260,1.102
867.516,1.096
867.771,1.088
868.026,1.090
868.282,1.104
868.536,1.121
868.791,1.124
869.046,1.117
869.301,1.110
869.555,1.110
869.809,1.121
870.064,1.130
870.318,1.141
870.572,1.145
870.826,1.137
871.079,1.124
871.333,1.114
871.586,1.116
871.840,1.115
872.093,1.114
872.346,1.122
872.599,1.143
872.852,1.161
873.105,1.167
873.357,1.152
873.610,1.133
873.862,1.126
874.114,1.129
874.366,1.132
874.618,1.126
874.870,1.110
875.121,1.098
875.373,1.095
875.624,1.102
875.876,1.105
876.127,1.106
876.378,1.105
876.629,1.106
876.879,1.111
877.130,1.116
877.381,1.112
877.631,1.099
877.881,1.093
878.131,1.102
878.381,1.123
878.631,1.144
878.881,1.152
879.130,1.146
879.380,1.133
879.629,1.123
879.878,1.115
880.127,1.110
880.376,1.114
880.625,1.126
880.873,1.140
881.122,1.149
881.370,1.150
881.618,1.143
881.866,1.131
882.114,1.118
882.362,1.114
882.610,1.118
882.857,1.125
883.105,1.127
883.352,1.119
883.599,1.111
883.846,1.104
884.093,1.103
884.340,1.110
884.586,1.124
884.833,1.135
885.079,1.137
885.325,1.130
885.571,1.123
885.817,1.120
886.063,1.122
886.309,1.128
886.554,1.138
886.800,1.147
887.045,1.149
887.290,1.135
887.535,1.118
887.780,1.114
888.025,1.128
888.270,1.149
888.514,1.163
888.758,1.163
889.003,1.146
889.247,1.122
889.491,1.115
889.735,1.122
889.978,1.137
890.222,1.137
890.465,1.128
890.709,1.118
890.952,1.110
891.195,1.104
891.438,1.101
891.681,1.098
891.923,1.102
892.166,1.107
892.408,1.111
892.651,1.106
892.893,1.097
893.135,1.094
893.377,1.098
893.619,1.106
893.861,1.114
894.102,1.124
894.344,1.139
894.585,1.158
894.826,1.167
895.067,1.158
895.308,1.145
895.549,1.131
895.790,1.122
896.031,1.111
896.271,1.111
896.512,1.120
896.752,1.130
896.992,1.128
897.232,1.117
897.472,1.113
897.712,1.124
897.952,1.141
898.191,1.146
898.431,1.143
898.670,1.142
898.910,1.147
899.149,1.158
899.388,1.165
899.627,1.168
899.866,1.159
900.105,1.144
900.343,1.133
900.582,1.131
900.820,1.141
901.059,1.155
901.297,1.158
901.535,1.140
901.773,1.119
902.011,1.104
902.249,1.099
902.487,1.097
902.725,1.103
902.963,1.114
903.200,1.117
903.438,1.114
903.675,1.113
903.912,1.122
904.150,1.133
904.387,1.137
904.624,1.126
904.861,1.110
905.098,1.102
905.334,1.103
905.571,1.106
905.808,1.112
906.045,1.125
906.281,1.136
906.518,1.140
906.754,1.140
906.990,1.137
907.227,1.132
907.463,1.120
907.699,1.113
907.935,1.119
908.171,1.130
908.407,1.134
908.643,1.132
908.879,1.129
909.115,1.138
909.350,1.143
909.586,1.143
909.822,1.138
910.057,1.146
910.293,1.166
910.528,1.177
910.764,1.173
910.999,1.163
911.235,1.157
911.470,1.158
911.706,1.152
911.941,1.151
912.176,1.143
912.412,1.133
912.647,1.129
912.882,1.131
913.117,1.132
913.352,1.124
913.588,1.113
913.823,1.107
914.058,1.108
914.293,1.112
914.528,1.109
914.763,1.105
914.999,1.104
915.234,1.107
915.469,1.112
915.704,1.115
915.939,1.114
916.174,1.110
916.409,1.110
916.645,1.124
916.880,1.138
917.115,1.144
917.350,1.138
917.586,1.130
917.821,1.130
918.056,1.137
918.292,1.145
918.527,1.142
918.763,1.133
918.998,1.127
919.234,1.139
919.469,1.157
919.705,1.163
919.940,1.157
920.176,1.148
920.412,1.149
920.648,1.146
920.884,1.139
921.120,1.128
921.356,1.123
921.592,1.117
921.828,1.115
922.065,1.117
922.301,1.130
922.537,1.145
922.774,1.150
923.011,1.139
923.247,1.126
923.484,1.127
923.721,1.137
923.958,1.144
924.195,1.145
924.433,1.142
924.670,1.133
924.908,1.118
925.145,1.118
925.383,1.130
925.621,1.144
925.859,1.149
926.097,1.147
926.335,1.142
926.574,1.141
926.813,1.144
927.051,1.148
927.290,1.152
927.529,1.162
927.769,1.177
928.008,1.181
928.248,1.163
928.487,1.144
928.727,1.137
928.967,1.146
929.208,1.154
929.448,1.152
929.689,1.139
929.930,1.121
930.171,1.105
930.413,1.101
930.654,1.101
930.896,1.097
931.138,1.089
931.380,1.087
931.623,1.098
931.865,1.114
932.108,1.129
932.352,1.139
932.595,1.145
932.839,1.147
933.083,1.143
933.327,1.133
933.571,1.121
933.816,1.123
934.061,1.131
934.307,1.134
934.552,1.123
934.798,1.116
935.045,1.119
935.291,1.126
935.538,1.129
935.785,1.133
936.033,1.140
936.281,1.145
936.529,1.146
936.777,1.140
937.026,1.131
937.275,1.123
937.525,1.116
937.775,1.110
938.025,1.103
938.276,1.102
938.527,1.108
938.778,1.110
939.030,1.109
939.282,1.109
939.535,1.116
939.788,1.127
940.041,1.127
940.295,1.123
940.550,1.122
940.804,1.130
941.059,1.136
941.315,1.128
941.571,1.113
941.828,1.105
942.085,1.108
942.342,1.115
942.600,1.114
942.858,1.107
943.117,1.098
943.377,1.092
943.636,1.089
943.897,1.093
944.158,1.106
944.419,1.116
944.681,1.121
944.944,1.120
945.207,1.123
945.470,1.128
945.734,1.133
945.999,1.144
946.264,1.160
946.530,1.169
946.797,1.164
947.064,1.155
947.331,1.145
947.600,1.132
947.869,1.119
948.138,1.108
948.408,1.102
948.679,1.105
948.950,1.110
949.222,1.109
949.495,1.103
949.768,1.104
950.043,1.116
