Wavelength (nm),Intensity Source #93,,C:/Users/Brend/Desktop/LED Spectras v2/Spectrometer Data.sp,,,Source #93,
379.792,1.994,,2018-06-14 09:57:00,,Integration Time,184 ms,
380.000,1.993,,Analyze Light,,Number of Scans to Average,25,
380.209,1.990,,,,Smoothing,1,
380.418,2.001
380.627,2.018
380.837,2.035
381.048,2.042
381.259,2.039
381.471,2.035
381.683,2.039
381.896,2.056
382.110,2.065
382.324,2.082
382.538,2.102
382.753,2.118
382.969,2.115
383.185,2.104
383.402,2.095
383.619,2.103
383.837,2.119
384.055,2.145
384.274,2.164
384.493,2.175
384.712,2.176
384.932,2.181
385.153,2.188
385.374,2.200
385.596,2.213
385.818,2.237
386.040,2.257
386.263,2.278
386.487,2.284
386.710,2.291
386.935,2.283
387.159,2.281
387.385,2.275
387.610,2.278
387.836,2.280
388.063,2.286
388.289,2.295
388.517,2.305
388.744,2.310
388.972,2.323
389.201,2.331
389.430,2.343
389.659,2.350
389.889,2.362
390.119,2.374
390.349,2.387
390.580,2.400
390.811,2.410
391.042,2.413
391.274,2.419
391.507,2.429
391.739,2.435
391.972,2.430
392.205,2.433
392.439,2.445
392.673,2.465
392.907,2.482
393.142,2.502
393.377,2.517
393.612,2.536
393.848,2.545
394.084,2.551
394.320,2.547
394.557,2.555
394.794,2.564
395.031,2.582
395.269,2.596
395.507,2.609
395.745,2.613
395.983,2.620
396.222,2.632
396.461,2.662
396.700,2.693
396.940,2.714
397.180,2.715
397.420,2.708
397.660,2.702
397.901,2.699
398.142,2.703
398.383,2.702
398.625,2.699
398.866,2.705
399.108,2.732
399.351,2.779
399.593,2.799
399.836,2.802
400.079,2.784
400.322,2.776
400.566,2.767
400.809,2.766
401.053,2.772
401.298,2.787
401.542,2.804
401.787,2.823
402.031,2.845
402.277,2.866
402.522,2.873
402.767,2.877
403.013,2.868
403.259,2.873
403.505,2.875
403.752,2.885
403.998,2.891
404.245,2.910
404.492,2.933
404.739,2.950
404.986,2.958
405.234,2.968
405.482,2.979
405.730,2.983
405.978,2.985
406.226,2.983
406.475,2.978
406.723,2.977
406.972,2.990
407.221,3.015
407.470,3.030
407.720,3.042
407.969,3.038
408.219,3.051
408.469,3.063
408.719,3.086
408.969,3.095
409.219,3.111
409.470,3.128
409.720,3.154
409.971,3.165
410.222,3.178
410.473,3.181
410.724,3.184
410.976,3.186
411.227,3.197
411.479,3.211
411.731,3.226
411.983,3.226
412.235,3.228
412.487,3.220
412.740,3.227
412.992,3.232
413.245,3.244
413.497,3.245
413.750,3.251
414.003,3.248
414.257,3.250
414.510,3.245
414.763,3.257
415.017,3.268
415.270,3.282
415.524,3.282
415.778,3.280
416.032,3.277
416.286,3.290
416.540,3.300
416.794,3.312
417.049,3.311
417.303,3.313
417.558,3.315
417.812,3.318
418.067,3.319
418.322,3.322
418.577,3.316
418.832,3.307
419.088,3.289
419.343,3.289
419.598,3.282
419.854,3.288
420.109,3.291
420.365,3.311
420.621,3.319
420.876,3.326
421.132,3.323
421.388,3.325
421.645,3.323
421.901,3.331
422.157,3.339
422.413,3.348
422.670,3.348
422.926,3.352
423.183,3.355
423.439,3.378
423.696,3.402
423.953,3.445
424.210,3.477
424.467,3.498
424.724,3.500
424.981,3.494
425.238,3.501
425.495,3.529
425.753,3.561
426.010,3.594
426.267,3.620
426.525,3.665
426.782,3.710
427.040,3.761
427.298,3.808
427.555,3.870
427.813,3.925
428.071,3.988
428.329,4.049
428.587,4.121
428.845,4.193
429.103,4.271
429.361,4.343
429.619,4.423
429.878,4.507
430.136,4.614
430.394,4.716
430.653,4.839
430.911,4.971
431.170,5.114
431.428,5.237
431.687,5.361
431.946,5.487
432.204,5.632
432.463,5.790
432.722,5.960
432.981,6.137
433.240,6.328
433.499,6.531
433.758,6.747
434.017,6.944
434.276,7.147
434.535,7.351
434.794,7.590
435.053,7.845
435.312,8.116
435.572,8.382
435.831,8.659
436.090,8.949
436.350,9.267
436.609,9.595
436.869,9.932
437.128,10.263
437.388,10.614
437.647,10.979
437.907,11.377
438.166,11.781
438.426,12.200
438.686,12.624
438.946,13.071
439.205,13.542
439.465,14.044
439.725,14.568
439.985,15.127
440.245,15.684
440.505,16.253
440.765,16.822
441.025,17.419
441.285,18.041
441.545,18.692
441.805,19.359
442.065,20.064
442.325,20.802
442.585,21.607
442.846,22.437
443.106,23.325
443.366,24.242
443.626,25.199
443.887,26.189
444.147,27.223
444.407,28.295
444.668,29.414
444.928,30.580
445.189,31.834
445.449,33.143
445.710,34.508
445.970,35.918
446.231,37.391
446.491,38.937
446.752,40.539
447.012,42.187
447.273,43.898
447.534,45.663
447.794,47.476
448.055,49.338
448.316,51.281
448.577,53.296
448.837,55.356
449.098,57.452
449.359,59.577
449.620,61.707
449.881,63.845
450.142,65.992
450.403,68.182
450.664,70.387
450.924,72.602
451.185,74.802
451.446,76.962
451.707,79.060
451.969,81.067
452.230,82.910
452.491,84.509
452.752,85.829
453.013,86.920
453.274,87.851
453.535,88.675
453.796,89.396
454.058,90.024
454.319,90.560
454.580,91.009
454.841,91.382
455.103,91.667
455.364,91.882
455.625,92.047
455.887,92.161
456.148,92.226
456.409,92.231
456.671,92.184
456.932,92.093
457.194,91.954
457.455,91.779
457.716,91.552
457.978,91.274
458.239,90.922
458.501,90.513
458.763,90.041
459.024,89.502
459.286,88.887
459.547,88.191
459.809,87.403
460.071,86.463
460.332,85.345
460.594,84.020
460.856,82.519
461.117,80.865
461.379,79.150
461.641,77.415
461.903,75.689
462.164,73.945
462.426,72.185
462.688,70.426
462.950,68.700
463.212,67.048
463.474,65.449
463.736,63.905
463.998,62.425
464.260,61.028
464.522,59.695
464.784,58.403
465.046,57.167
465.308,56.019
465.570,54.940
465.832,53.917
466.094,52.946
466.356,52.018
466.618,51.131
466.880,50.247
467.142,49.386
467.405,48.554
467.667,47.777
467.929,47.021
468.191,46.282
468.454,45.532
468.716,44.809
468.978,44.070
469.241,43.327
469.503,42.559
469.765,41.814
470.028,41.085
470.290,40.378
470.552,39.670
470.815,38.972
471.077,38.268
471.340,37.563
471.602,36.848
471.865,36.121
472.128,35.390
472.390,34.654
472.653,33.922
472.915,33.178
473.178,32.443
473.441,31.703
473.703,30.964
473.966,30.215
474.229,29.471
474.492,28.728
474.755,27.986
475.017,27.267
475.280,26.562
475.543,25.882
475.806,25.172
476.069,24.467
476.332,23.761
476.595,23.107
476.858,22.460
477.121,21.827
477.384,21.202
477.647,20.615
477.910,20.052
478.173,19.512
478.436,18.969
478.699,18.464
478.962,17.974
479.226,17.519
479.489,17.055
479.752,16.613
480.015,16.180
480.279,15.763
480.542,15.348
480.805,14.954
481.069,14.581
481.332,14.220
481.595,13.872
481.859,13.569
482.122,13.275
482.386,12.981
482.649,12.658
482.913,12.350
483.177,12.045
483.440,11.757
483.704,11.474
483.967,11.221
484.231,10.972
484.495,10.746
484.759,10.521
485.022,10.295
485.286,10.054
485.550,9.820
485.814,9.581
486.078,9.349
486.342,9.124
486.606,8.929
486.869,8.746
487.133,8.568
487.397,8.384
487.662,8.196
487.926,7.987
488.190,7.782
488.454,7.569
488.718,7.380
488.982,7.185
489.246,7.003
489.511,6.814
489.775,6.635
490.039,6.458
490.304,6.278
490.568,6.092
490.832,5.918
491.097,5.764
491.361,5.629
491.626,5.488
491.890,5.347
492.155,5.202
492.419,5.077
492.684,4.943
492.949,4.807
493.213,4.669
493.478,4.556
493.743,4.442
494.008,4.315
494.272,4.177
494.537,4.069
494.802,3.978
495.067,3.908
495.332,3.831
495.597,3.760
495.862,3.670
496.127,3.588
496.392,3.500
496.657,3.418
496.922,3.329
497.187,3.256
497.452,3.196
497.718,3.156
497.983,3.102
498.248,3.044
498.513,2.972
498.779,2.925
499.044,2.884
499.310,2.835
499.575,2.772
499.841,2.718
500.106,2.675
500.372,2.632
500.637,2.589
500.903,2.568
501.168,2.549
501.434,2.519
501.700,2.462
501.966,2.416
502.231,2.375
502.497,2.348
502.763,2.310
503.029,2.276
503.295,2.249
503.561,2.232
503.827,2.217
504.093,2.200
504.359,2.174
504.625,2.149
504.891,2.121
505.157,2.103
505.423,2.072
505.690,2.038
505.956,2.007
506.222,1.997
506.489,2.006
506.755,2.019
507.021,2.023
507.288,2.016
507.554,1.991
507.821,1.968
508.087,1.946
508.354,1.948
508.621,1.941
508.887,1.925
509.154,1.902
509.421,1.889
509.687,1.875
509.954,1.859
510.221,1.837
510.488,1.834
510.755,1.835
511.022,1.837
511.289,1.820
511.556,1.802
511.823,1.787
512.090,1.791
512.357,1.785
512.624,1.779
512.891,1.763
513.159,1.749
513.426,1.731
513.693,1.717
513.960,1.712
514.228,1.715
514.495,1.720
514.763,1.720
515.030,1.710
515.298,1.694
515.565,1.685
515.833,1.681
516.100,1.677
516.368,1.671
516.636,1.663
516.904,1.663
517.171,1.656
517.439,1.654
517.707,1.644
517.975,1.642
518.243,1.643
518.511,1.642
518.779,1.626
519.047,1.615
519.315,1.612
519.583,1.613
519.851,1.601
520.119,1.591
520.387,1.585
520.656,1.585
520.924,1.588
521.192,1.592
521.461,1.596
521.729,1.601
521.997,1.606
522.266,1.607
522.534,1.604
522.803,1.602
523.071,1.595
523.340,1.584
523.609,1.564
523.877,1.551
524.146,1.544
524.415,1.551
524.684,1.561
524.952,1.562
525.221,1.558
525.490,1.561
525.759,1.569
526.028,1.568
526.297,1.545
526.566,1.529
526.835,1.520
527.104,1.525
527.373,1.529
527.642,1.528
527.912,1.515
528.181,1.503
528.450,1.497
528.719,1.509
528.989,1.535
529.258,1.563
529.528,1.571
529.797,1.558
530.067,1.545
530.336,1.531
530.606,1.520
530.875,1.503
531.145,1.499
531.414,1.506
531.684,1.518
531.954,1.518
532.224,1.505
532.493,1.480
532.763,1.467
533.033,1.467
533.303,1.483
533.573,1.495
533.843,1.492
534.113,1.485
534.383,1.474
534.653,1.475
534.923,1.480
535.193,1.489
535.463,1.506
535.733,1.520
536.004,1.526
536.274,1.521
536.544,1.504
536.814,1.483
537.085,1.465
537.355,1.468
537.626,1.488
537.896,1.504
538.166,1.507
538.437,1.500
538.707,1.496
538.978,1.501
539.249,1.513
539.519,1.519
539.790,1.511
540.061,1.507
540.331,1.519
540.602,1.547
540.873,1.564
541.144,1.568
541.414,1.559
541.685,1.549
541.956,1.539
542.227,1.532
542.498,1.522
542.769,1.515
543.040,1.519
543.311,1.534
543.582,1.549
543.853,1.560
544.124,1.571
544.396,1.579
544.667,1.583
544.938,1.575
545.209,1.540
545.480,1.512
545.752,1.497
546.023,1.511
546.294,1.508
546.566,1.495
546.837,1.477
547.109,1.472
547.380,1.465
547.652,1.458
547.923,1.457
548.195,1.471
548.466,1.494
548.738,1.518
549.009,1.520
549.281,1.508
549.553,1.483
549.824,1.458
550.096,1.442
550.368,1.437
550.640,1.443
550.911,1.453
551.183,1.473
551.455,1.505
551.727,1.526
551.999,1.518
552.271,1.485
552.543,1.460
552.815,1.451
553.087,1.462
553.359,1.476
553.631,1.485
553.903,1.483
554.175,1.482
554.447,1.488
554.719,1.494
554.991,1.495
555.263,1.492
555.535,1.485
555.808,1.476
556.080,1.466
556.352,1.460
556.624,1.456
556.897,1.447
557.169,1.441
557.441,1.435
557.714,1.432
557.986,1.429
558.258,1.426
558.531,1.435
558.803,1.445
559.076,1.454
559.348,1.447
559.621,1.435
559.893,1.430
560.166,1.431
560.438,1.436
560.711,1.436
560.983,1.437
561.256,1.439
561.528,1.444
561.801,1.453
562.074,1.466
562.346,1.482
562.619,1.492
562.892,1.486
563.164,1.473
563.437,1.467
563.710,1.463
563.983,1.454
564.255,1.441
564.528,1.448
564.801,1.466
565.074,1.476
565.346,1.465
565.619,1.455
565.892,1.456
566.165,1.456
566.438,1.445
566.711,1.431
566.984,1.429
567.257,1.433
567.529,1.440
567.802,1.452
568.075,1.464
568.348,1.465
568.621,1.463
568.894,1.455
569.167,1.450
569.440,1.435
569.713,1.420
569.986,1.413
570.259,1.413
570.532,1.421
570.805,1.426
571.078,1.430
571.351,1.433
571.625,1.435
571.898,1.431
572.171,1.421
572.444,1.412
572.717,1.420
572.990,1.435
573.263,1.436
573.536,1.424
573.809,1.406
574.083,1.401
574.356,1.411
574.629,1.432
574.902,1.443
575.175,1.439
575.448,1.423
575.721,1.412
575.995,1.408
576.268,1.411
576.541,1.424
576.814,1.436
577.087,1.444
577.361,1.443
577.634,1.439
577.907,1.427
578.180,1.413
578.453,1.404
578.727,1.409
579.000,1.415
579.273,1.423
579.546,1.435
579.820,1.452
580.093,1.455
580.366,1.445
580.639,1.427
580.913,1.417
581.186,1.413
581.459,1.411
581.732,1.404
582.005,1.402
582.279,1.400
582.552,1.405
582.825,1.407
583.098,1.412
583.372,1.419
583.645,1.427
583.918,1.434
584.191,1.434
584.464,1.429
584.738,1.424
585.011,1.424
585.284,1.425
585.557,1.423
585.831,1.424
586.104,1.436
586.377,1.458
586.650,1.470
586.923,1.469
587.196,1.455
587.470,1.438
587.743,1.426
588.016,1.420
588.289,1.425
588.562,1.435
588.835,1.438
589.109,1.430
589.382,1.417
589.655,1.410
589.928,1.406
590.201,1.405
590.474,1.414
590.747,1.429
591.020,1.442
591.293,1.449
591.567,1.451
591.840,1.443
592.113,1.431
592.386,1.414
592.659,1.401
592.932,1.397
593.205,1.404
593.478,1.413
593.751,1.413
594.024,1.409
594.297,1.400
594.570,1.396
594.843,1.400
595.116,1.413
595.389,1.421
595.662,1.416
595.934,1.415
596.207,1.423
596.480,1.432
596.753,1.439
597.026,1.440
597.299,1.440
597.572,1.440
597.844,1.437
598.117,1.427
598.390,1.418
598.663,1.412
598.936,1.416
599.208,1.415
599.481,1.416
599.754,1.414
600.026,1.404
600.299,1.394
600.572,1.388
600.844,1.388
601.117,1.383
601.390,1.379
601.662,1.376
601.935,1.377
602.207,1.380
602.480,1.387
602.752,1.390
603.025,1.384
603.297,1.378
603.570,1.388
603.842,1.408
604.115,1.424
604.387,1.432
604.660,1.427
604.932,1.423
605.204,1.424
605.477,1.434
605.749,1.450
606.021,1.463
606.294,1.468
606.566,1.457
606.838,1.447
607.110,1.447
607.383,1.455
607.655,1.463
607.927,1.468
608.199,1.472
608.471,1.474
608.743,1.467
609.015,1.462
609.287,1.458
609.559,1.458
609.831,1.458
610.103,1.457
610.375,1.452
610.647,1.440
610.919,1.428
611.191,1.426
611.463,1.431
611.735,1.435
612.007,1.425
612.278,1.417
612.550,1.414
612.822,1.424
613.094,1.430
613.365,1.428
613.637,1.429
613.909,1.429
614.180,1.432
614.452,1.427
614.723,1.419
614.995,1.410
615.266,1.407
615.538,1.419
615.809,1.428
616.081,1.427
616.352,1.416
616.623,1.408
616.895,1.406
617.166,1.403
617.437,1.402
617.709,1.407
617.980,1.413
618.251,1.419
618.522,1.425
618.793,1.439
619.065,1.459
619.336,1.456
619.607,1.439
619.878,1.425
620.149,1.433
620.420,1.438
620.691,1.432
620.962,1.431
621.232,1.441
621.503,1.444
621.774,1.435
622.045,1.426
622.316,1.431
622.586,1.446
622.857,1.462
623.128,1.468
623.398,1.462
623.669,1.446
623.940,1.428
624.210,1.413
624.481,1.416
624.751,1.422
625.021,1.427
625.292,1.419
625.562,1.415
625.833,1.409
626.103,1.399
626.373,1.389
626.643,1.390
626.914,1.397
627.184,1.406
627.454,1.407
627.724,1.406
627.994,1.409
628.264,1.413
628.534,1.408
628.804,1.401
629.074,1.402
629.344,1.410
629.614,1.413
629.884,1.405
630.154,1.394
630.424,1.382
630.693,1.370
630.963,1.354
631.233,1.340
631.502,1.342
631.772,1.359
632.041,1.378
632.311,1.388
632.581,1.392
632.850,1.391
633.119,1.382
633.389,1.369
633.658,1.360
633.928,1.366
634.197,1.381
634.466,1.399
634.735,1.412
635.004,1.409
635.274,1.399
635.543,1.388
635.812,1.384
636.081,1.383
636.350,1.383
636.619,1.383
636.888,1.386
637.157,1.393
637.426,1.402
637.694,1.407
637.963,1.407
638.232,1.399
638.501,1.388
638.769,1.383
639.038,1.386
639.307,1.400
639.575,1.411
639.844,1.412
640.112,1.402
640.381,1.384
640.649,1.376
640.917,1.378
641.186,1.382
641.454,1.386
641.722,1.386
641.991,1.387
642.259,1.380
642.527,1.376
642.795,1.373
643.063,1.366
643.331,1.361
643.599,1.362
643.867,1.375
644.135,1.383
644.403,1.391
644.671,1.395
644.939,1.403
645.206,1.409
645.474,1.416
645.742,1.409
646.009,1.390
646.277,1.375
646.545,1.375
646.812,1.398
647.080,1.419
647.347,1.428
647.615,1.419
647.882,1.398
648.149,1.379
648.417,1.368
648.684,1.374
648.951,1.390
649.219,1.404
649.486,1.407
649.753,1.401
650.020,1.390
650.287,1.380
650.554,1.372
650.821,1.369
651.088,1.369
651.355,1.377
651.622,1.382
651.889,1.388
652.155,1.381
652.422,1.380
652.689,1.383
652.956,1.392
653.222,1.404
653.489,1.422
653.755,1.432
654.022,1.424
654.288,1.403
654.555,1.392
654.821,1.396
655.088,1.406
655.354,1.416
655.620,1.425
655.887,1.430
656.153,1.432
656.419,1.428
656.685,1.422
656.951,1.412
657.217,1.404
657.483,1.396
657.749,1.392
658.015,1.392
658.281,1.392
658.547,1.387
658.813,1.379
659.079,1.373
659.345,1.372
659.610,1.372
659.876,1.372
660.142,1.374
660.407,1.375
660.673,1.378
660.939,1.382
661.204,1.382
661.470,1.381
661.735,1.380
662.000,1.383
662.266,1.382
662.531,1.381
662.796,1.381
663.062,1.378
663.327,1.372
663.592,1.373
663.857,1.377
664.122,1.380
664.388,1.376
664.653,1.379
664.918,1.386
665.183,1.388
665.448,1.389
665.712,1.392
665.977,1.398
666.242,1.396
666.507,1.375
666.772,1.354
667.037,1.341
667.301,1.346
667.566,1.356
667.831,1.366
668.095,1.373
668.360,1.377
668.624,1.372
668.889,1.372
669.153,1.369
669.418,1.372
669.682,1.375
669.946,1.385
670.211,1.396
670.475,1.406
670.739,1.417
671.004,1.429
671.268,1.462
671.532,1.497
671.796,1.491
672.060,1.462
672.324,1.429
672.588,1.435
672.852,1.452
673.116,1.501
673.380,1.545
673.644,1.519
673.908,1.451
674.172,1.389
674.436,1.387
674.700,1.393
674.963,1.398
675.227,1.401
675.491,1.396
675.754,1.387
676.018,1.382
676.282,1.386
676.545,1.390
676.809,1.386
677.072,1.376
677.336,1.366
677.599,1.365
677.863,1.366
678.126,1.373
678.389,1.386
678.653,1.398
678.916,1.395
679.179,1.377
679.442,1.365
679.706,1.369
679.969,1.376
680.232,1.385
680.495,1.397
680.758,1.408
681.021,1.407
681.284,1.391
681.547,1.377
681.810,1.381
682.073,1.401
682.336,1.415
682.599,1.415
682.862,1.406
683.125,1.404
683.388,1.406
683.651,1.407
683.913,1.402
684.176,1.389
684.439,1.373
684.702,1.357
684.964,1.351
685.227,1.355
685.490,1.371
685.752,1.391
686.015,1.398
686.277,1.396
686.540,1.387
686.802,1.381
687.065,1.380
687.327,1.381
687.590,1.380
687.852,1.372
688.115,1.358
688.377,1.353
688.639,1.353
688.902,1.359
689.164,1.368
689.426,1.385
689.689,1.399
689.951,1.401
690.213,1.396
690.475,1.394
690.737,1.390
691.000,1.382
691.262,1.376
691.524,1.382
691.786,1.399
692.048,1.415
692.310,1.413
692.572,1.392
692.834,1.364
693.096,1.353
693.358,1.366
693.620,1.386
693.882,1.403
694.144,1.403
694.406,1.396
694.668,1.390
694.930,1.384
695.192,1.379
695.453,1.378
695.715,1.381
695.977,1.380
696.239,1.372
696.501,1.368
696.762,1.375
697.024,1.378
697.286,1.371
697.548,1.367
697.809,1.368
698.071,1.373
698.333,1.372
698.594,1.373
698.856,1.382
699.118,1.387
699.379,1.391
699.641,1.394
699.902,1.403
700.164,1.408
700.426,1.403
700.687,1.391
700.949,1.385
701.210,1.382
701.472,1.377
701.733,1.369
701.995,1.367
702.256,1.367
702.518,1.366
702.779,1.364
703.041,1.378
703.302,1.399
703.563,1.405
703.825,1.394
704.086,1.381
704.348,1.376
704.609,1.382
704.871,1.392
705.132,1.406
705.393,1.402
705.655,1.394
705.916,1.388
706.177,1.389
706.439,1.391
706.700,1.388
706.961,1.386
707.223,1.381
707.484,1.365
707.745,1.351
708.007,1.335
708.268,1.326
708.529,1.313
708.790,1.294
709.052,1.284
709.313,1.285
709.574,1.298
709.835,1.307
710.097,1.302
710.358,1.284
710.619,1.264
710.881,1.252
711.142,1.245
711.403,1.242
711.664,1.240
711.926,1.239
712.187,1.244
712.448,1.252
712.709,1.265
712.970,1.277
713.232,1.286
713.493,1.293
713.754,1.290
714.015,1.288
714.277,1.288
714.538,1.298
714.799,1.310
715.060,1.316
715.322,1.314
715.583,1.305
715.844,1.294
716.105,1.282
716.367,1.272
716.628,1.273
716.889,1.277
717.150,1.272
717.411,1.263
717.673,1.264
717.934,1.273
718.195,1.282
718.457,1.275
718.718,1.260
718.979,1.254
719.240,1.260
719.502,1.277
719.763,1.293
720.024,1.303
720.286,1.307
720.547,1.298
720.808,1.287
721.069,1.277
721.331,1.280
721.592,1.289
721.853,1.298
722.115,1.302
722.376,1.301
722.638,1.298
722.899,1.295
723.160,1.287
723.422,1.278
723.683,1.268
723.944,1.268
724.206,1.271
724.467,1.275
724.729,1.279
724.990,1.289
725.252,1.298
725.513,1.291
725.775,1.275
726.036,1.259
726.298,1.257
726.559,1.261
726.821,1.264
727.082,1.265
727.344,1.265
727.605,1.268
727.867,1.267
728.128,1.268
728.390,1.266
728.652,1.273
728.913,1.287
729.175,1.298
729.436,1.303
729.698,1.304
729.960,1.298
730.221,1.284
730.483,1.263
730.745,1.256
731.007,1.258
731.268,1.263
731.530,1.265
731.792,1.266
732.054,1.271
732.315,1.277
732.577,1.284
732.839,1.281
733.101,1.274
733.363,1.267
733.625,1.264
733.887,1.266
734.149,1.266
734.411,1.270
734.673,1.273
734.935,1.273
735.197,1.270
735.459,1.272
735.721,1.278
735.983,1.276
736.245,1.263
736.507,1.258
736.769,1.265
737.031,1.273
737.293,1.270
737.555,1.258
737.818,1.250
738.080,1.245
738.342,1.246
738.604,1.245
738.867,1.246
739.129,1.244
739.391,1.243
739.654,1.246
739.916,1.251
740.178,1.261
740.441,1.272
740.703,1.276
740.966,1.267
741.228,1.254
741.491,1.247
741.753,1.253
742.016,1.258
742.278,1.259
742.541,1.260
742.804,1.265
743.066,1.277
743.329,1.282
743.592,1.278
743.854,1.276
744.117,1.278
744.380,1.283
744.643,1.277
744.905,1.268
745.168,1.262
745.431,1.257
745.694,1.253
745.957,1.250
746.220,1.247
746.483,1.245
746.746,1.244
747.009,1.256
747.272,1.275
747.535,1.291
747.798,1.295
748.061,1.285
748.324,1.268
748.588,1.255
748.851,1.248
749.114,1.249
749.377,1.254
749.641,1.258
749.904,1.266
750.167,1.276
750.431,1.285
750.694,1.295
750.958,1.298
751.221,1.293
751.485,1.277
751.748,1.265
752.012,1.268
752.275,1.285
752.539,1.292
752.803,1.287
753.066,1.269
753.330,1.259
753.594,1.256
753.857,1.257
754.121,1.263
754.385,1.271
754.649,1.278
754.913,1.283
755.177,1.287
755.441,1.285
755.705,1.275
755.969,1.261
756.233,1.262
756.497,1.268
756.761,1.269
757.025,1.259
757.289,1.253
757.553,1.255
757.818,1.264
758.082,1.274
758.346,1.278
758.610,1.279
758.875,1.276
759.139,1.273
759.404,1.268
759.668,1.266
759.932,1.273
760.197,1.284
760.462,1.290
760.726,1.289
760.991,1.285
761.255,1.284
761.520,1.280
761.785,1.271
762.049,1.254
762.314,1.243
762.579,1.245
762.844,1.259
763.109,1.270
763.374,1.272
763.639,1.269
763.903,1.261
764.168,1.254
764.433,1.256
764.699,1.270
764.964,1.281
765.229,1.280
765.494,1.270
765.759,1.262
766.024,1.262
766.290,1.272
766.555,1.285
766.820,1.292
767.086,1.291
767.351,1.285
767.616,1.280
767.882,1.272
768.147,1.266
768.413,1.257
768.678,1.252
768.944,1.254
769.209,1.266
769.475,1.281
769.741,1.293
770.006,1.301
770.272,1.308
770.538,1.304
770.804,1.298
771.070,1.292
771.335,1.295
771.601,1.302
771.867,1.305
772.133,1.302
772.399,1.296
772.665,1.286
772.931,1.284
773.197,1.291
773.464,1.303
773.730,1.311
773.996,1.310
774.262,1.307
774.528,1.300
774.795,1.303
775.061,1.309
775.327,1.313
775.594,1.304
775.860,1.288
776.126,1.267
776.393,1.256
776.659,1.253
776.926,1.252
777.193,1.255
777.459,1.258
777.726,1.260
777.992,1.259
778.259,1.255
778.526,1.260
778.793,1.266
779.059,1.275
779.326,1.283
779.593,1.289
779.860,1.295
780.127,1.293
780.394,1.290
780.661,1.288
780.928,1.284
781.195,1.274
781.462,1.265
781.729,1.264
781.996,1.270
782.263,1.276
782.530,1.288
782.797,1.294
783.064,1.286
783.332,1.271
783.599,1.260
783.866,1.262
784.134,1.264
784.401,1.262
784.668,1.260
784.936,1.262
785.203,1.261
785.470,1.255
785.738,1.250
786.005,1.250
786.273,1.251
786.541,1.252
786.808,1.257
787.076,1.264
787.343,1.272
787.611,1.280
787.879,1.288
788.146,1.286
788.414,1.286
788.682,1.280
788.950,1.279
789.217,1.281
789.485,1.294
789.753,1.304
790.021,1.297
790.289,1.275
790.557,1.253
790.825,1.244
791.093,1.251
791.361,1.266
791.629,1.282
791.897,1.291
792.165,1.292
792.433,1.284
792.701,1.266
792.969,1.248
793.237,1.240
793.505,1.250
793.773,1.263
794.042,1.266
794.310,1.259
794.578,1.255
794.846,1.258
795.115,1.259
795.383,1.261
795.651,1.271
795.920,1.281
796.188,1.285
796.456,1.288
796.725,1.290
796.993,1.296
797.261,1.293
797.530,1.284
797.798,1.275
798.067,1.280
798.335,1.293
798.604,1.294
798.872,1.277
799.141,1.260
799.409,1.254
799.678,1.259
799.946,1.270
800.215,1.276
800.483,1.278
800.752,1.276
801.020,1.270
801.289,1.264
801.558,1.259
801.826,1.260
802.095,1.257
802.363,1.259
802.632,1.264
802.901,1.276
803.169,1.280
803.438,1.277
803.707,1.267
803.976,1.252
804.244,1.246
804.513,1.246
804.782,1.247
805.050,1.249
805.319,1.256
805.588,1.270
805.857,1.280
806.125,1.281
806.394,1.274
806.663,1.262
806.931,1.252
807.200,1.251
807.469,1.257
807.738,1.259
808.006,1.256
808.275,1.257
808.544,1.271
808.813,1.287
809.082,1.291
809.350,1.284
809.619,1.278
809.888,1.269
810.157,1.260
810.425,1.250
810.694,1.251
810.963,1.256
811.232,1.256
811.500,1.247
811.769,1.239
812.038,1.241
812.306,1.254
812.575,1.269
812.844,1.279
813.113,1.281
813.381,1.271
813.650,1.270
813.919,1.276
814.187,1.288
814.456,1.294
814.725,1.297
814.993,1.294
815.262,1.290
815.531,1.282
815.799,1.275
816.068,1.267
816.336,1.255
816.605,1.252
816.873,1.254
817.142,1.263
817.411,1.270
817.679,1.273
817.948,1.284
818.216,1.302
818.485,1.340
818.753,1.368
819.021,1.349
819.290,1.301
819.558,1.266
819.827,1.269
820.095,1.281
820.363,1.284
820.632,1.281
820.900,1.278
821.168,1.281
821.437,1.288
821.705,1.291
821.973,1.291
822.241,1.290
822.509,1.288
822.777,1.278
823.046,1.271
823.314,1.276
823.582,1.288
823.850,1.298
824.118,1.300
824.386,1.293
824.654,1.272
824.922,1.250
825.190,1.238
825.457,1.248
825.725,1.262
825.993,1.263
826.261,1.259
826.529,1.257
826.796,1.260
827.064,1.258
827.332,1.258
827.599,1.265
827.867,1.279
828.134,1.283
828.402,1.270
828.669,1.255
828.937,1.249
829.204,1.266
829.471,1.290
829.739,1.305
830.006,1.306
830.273,1.293
830.540,1.277
830.807,1.261
831.075,1.257
831.342,1.264
831.609,1.270
831.876,1.274
832.142,1.279
832.409,1.285
832.676,1.280
832.943,1.265
833.210,1.253
833.476,1.254
833.743,1.266
834.010,1.277
834.276,1.272
834.543,1.261
834.809,1.257
835.076,1.262
835.342,1.267
835.608,1.277
835.874,1.286
836.141,1.289
836.407,1.283
836.673,1.274
836.939,1.270
837.205,1.264
837.471,1.262
837.737,1.264
838.002,1.264
838.268,1.266
838.534,1.268
838.799,1.267
839.065,1.270
839.330,1.274
839.596,1.279
839.861,1.282
840.127,1.288
840.392,1.291
840.657,1.295
840.922,1.302
841.187,1.308
841.452,1.308
841.717,1.306
841.982,1.300
842.247,1.287
842.511,1.272
842.776,1.267
843.041,1.270
843.305,1.270
843.570,1.268
843.834,1.264
844.098,1.262
844.362,1.260
844.627,1.255
844.891,1.252
845.155,1.254
845.419,1.263
845.682,1.273
845.946,1.281
846.210,1.288
846.474,1.287
846.737,1.287
847.001,1.279
847.264,1.266
847.527,1.258
847.790,1.258
848.054,1.261
848.317,1.253
848.580,1.247
848.843,1.250
849.105,1.270
849.368,1.291
849.631,1.306
849.893,1.313
850.156,1.320
850.418,1.319
850.680,1.301
850.943,1.285
851.205,1.280
851.467,1.279
851.729,1.270
851.991,1.265
852.252,1.272
852.514,1.284
852.776,1.290
853.037,1.293
853.298,1.289
853.560,1.280
853.821,1.263
854.082,1.247
854.343,1.247
854.604,1.268
854.865,1.299
855.126,1.319
855.386,1.329
855.647,1.329
855.907,1.321
856.168,1.302
856.428,1.285
856.688,1.275
856.948,1.262
857.208,1.249
857.468,1.244
857.727,1.252
857.987,1.261
858.247,1.269
858.506,1.281
858.765,1.288
859.024,1.281
859.284,1.265
859.543,1.251
859.801,1.246
860.060,1.251
860.319,1.270
860.577,1.290
860.836,1.301
861.094,1.306
861.352,1.304
861.611,1.293
861.869,1.276
862.127,1.268
862.384,1.271
862.642,1.276
862.900,1.286
863.157,1.294
863.414,1.295
863.672,1.280
863.929,1.261
864.186,1.254
864.443,1.258
864.699,1.265
864.956,1.266
865.212,1.256
865.469,1.251
865.725,1.256
865.981,1.270
866.237,1.278
866.493,1.277
866.749,1.267
867.005,1.260
867.260,1.256
867.516,1.255
867.771,1.251
868.026,1.251
868.282,1.261
868.536,1.270
868.791,1.269
869.046,1.258
869.301,1.250
869.555,1.254
869.809,1.265
870.064,1.276
870.318,1.285
870.572,1.292
870.826,1.282
871.079,1.268
871.333,1.258
871.586,1.263
871.840,1.265
872.093,1.263
872.346,1.266
872.599,1.282
872.852,1.301
873.105,1.312
873.357,1.306
873.610,1.291
873.862,1.287
874.114,1.290
874.366,1.296
874.618,1.291
874.870,1.273
875.121,1.255
875.373,1.247
875.624,1.251
875.876,1.257
876.127,1.259
876.378,1.257
876.629,1.256
876.879,1.261
877.130,1.266
877.381,1.261
877.631,1.245
877.881,1.237
878.131,1.246
878.381,1.268
878.631,1.289
878.881,1.299
879.130,1.297
879.380,1.288
879.629,1.281
879.878,1.272
880.127,1.266
880.376,1.268
880.625,1.281
880.873,1.295
881.122,1.301
881.370,1.296
881.618,1.283
881.866,1.270
882.114,1.263
882.362,1.266
882.610,1.272
882.857,1.277
883.105,1.274
883.352,1.259
883.599,1.247
883.846,1.242
884.093,1.246
884.340,1.260
884.586,1.276
884.833,1.289
885.079,1.288
885.325,1.278
885.571,1.271
885.817,1.270
886.063,1.280
886.309,1.287
886.554,1.298
886.800,1.308
887.045,1.311
887.290,1.296
887.535,1.276
887.780,1.266
888.025,1.273
888.270,1.291
888.514,1.310
888.758,1.316
889.003,1.305
889.247,1.279
889.491,1.269
889.735,1.274
889.978,1.289
890.222,1.288
890.465,1.281
890.709,1.270
890.952,1.258
891.195,1.247
891.438,1.241
891.681,1.236
891.923,1.240
892.166,1.248
892.408,1.256
892.651,1.255
892.893,1.250
893.135,1.248
893.377,1.248
893.619,1.251
893.861,1.257
894.102,1.270
894.344,1.291
894.585,1.314
894.826,1.327
895.067,1.317
895.308,1.298
895.549,1.279
895.790,1.270
896.031,1.260
896.271,1.263
896.512,1.275
896.752,1.289
896.992,1.290
897.232,1.279
897.472,1.270
897.712,1.279
897.952,1.299
898.191,1.308
898.431,1.305
898.670,1.302
898.910,1.305
899.149,1.316
899.388,1.323
899.627,1.321
899.866,1.311
900.105,1.293
900.343,1.285
900.582,1.283
900.820,1.289
901.059,1.301
901.297,1.310
901.535,1.298
901.773,1.277
902.011,1.259
902.249,1.249
902.487,1.246
902.725,1.247
902.963,1.258
903.200,1.261
903.438,1.259
903.675,1.258
903.912,1.267
904.150,1.281
904.387,1.284
904.624,1.274
904.861,1.258
905.098,1.250
905.334,1.253
905.571,1.254
905.808,1.257
906.045,1.266
906.281,1.277
906.518,1.282
906.754,1.285
906.990,1.286
907.227,1.284
907.463,1.272
907.699,1.262
907.935,1.263
908.171,1.272
908.407,1.275
908.643,1.276
908.879,1.276
909.115,1.286
909.350,1.295
909.586,1.296
909.822,1.294
910.057,1.302
910.293,1.326
910.528,1.341
910.764,1.338
910.999,1.326
911.235,1.310
911.470,1.308
911.706,1.302
911.941,1.301
912.176,1.294
912.412,1.285
912.647,1.284
912.882,1.287
913.117,1.289
913.352,1.285
913.588,1.275
913.823,1.270
914.058,1.269
914.293,1.274
914.528,1.271
914.763,1.264
914.999,1.256
915.234,1.256
915.469,1.262
915.704,1.266
915.939,1.266
916.174,1.259
916.409,1.260
916.645,1.270
916.880,1.283
917.115,1.288
917.350,1.281
917.586,1.274
917.821,1.274
918.056,1.284
918.292,1.295
918.527,1.293
918.763,1.281
918.998,1.268
919.234,1.275
919.469,1.290
919.705,1.301
919.940,1.297
920.176,1.291
920.412,1.295
920.648,1.296
920.884,1.292
921.120,1.281
921.356,1.272
921.592,1.268
921.828,1.269
922.065,1.273
922.301,1.282
922.537,1.294
922.774,1.298
923.011,1.288
923.247,1.272
923.484,1.270
923.721,1.282
923.958,1.293
924.195,1.293
924.433,1.285
924.670,1.273
924.908,1.260
925.145,1.260
925.383,1.272
925.621,1.286
925.859,1.293
926.097,1.297
926.335,1.298
926.574,1.300
926.813,1.303
927.051,1.303
927.290,1.300
927.529,1.305
927.769,1.323
928.008,1.335
928.248,1.320
928.487,1.298
928.727,1.288
928.967,1.301
929.208,1.315
929.448,1.315
929.689,1.304
929.930,1.285
930.171,1.269
930.413,1.260
930.654,1.258
930.896,1.253
931.138,1.247
931.380,1.245
931.623,1.256
931.865,1.273
932.108,1.289
932.352,1.297
932.595,1.298
932.839,1.301
933.083,1.295
933.327,1.284
933.571,1.270
933.816,1.269
934.061,1.276
934.307,1.279
934.552,1.271
934.798,1.268
935.045,1.272
935.291,1.276
935.538,1.278
935.785,1.284
936.033,1.295
936.281,1.302
936.529,1.304
936.777,1.299
937.026,1.291
937.275,1.284
937.525,1.276
937.775,1.268
938.025,1.259
938.276,1.256
938.527,1.253
938.778,1.248
939.030,1.243
939.282,1.242
939.535,1.248
939.788,1.261
940.041,1.264
940.295,1.259
940.550,1.259
940.804,1.274
941.059,1.289
941.315,1.285
941.571,1.269
941.828,1.258
942.085,1.257
942.342,1.262
942.600,1.260
942.858,1.252
943.117,1.242
943.377,1.234
943.636,1.230
943.897,1.234
944.158,1.245
944.419,1.256
944.681,1.261
944.944,1.265
945.207,1.273
945.470,1.283
945.734,1.290
945.999,1.302
946.264,1.317
946.530,1.325
946.797,1.320
947.064,1.308
947.331,1.297
947.600,1.281
947.869,1.269
948.138,1.257
948.408,1.253
948.679,1.256
948.950,1.264
949.222,1.265
949.495,1.262
949.768,1.265
950.043,1.281
