Wavelength (nm),Intensity Source #66,,C:/Users/Brend/Desktop/MÃ s LED Spectras/Spectrometer Data.sp,,,Source #66,
379.792,2.220,,2018-06-13 15:03:39,,Integration Time,952 ms,
380.000,2.179,,Analyze Light,,Number of Scans to Average,25,
380.209,2.124,,,,Smoothing,1,
380.418,2.162
380.627,2.228
380.837,2.300
381.048,2.314
381.259,2.295
381.471,2.261
381.683,2.255
381.896,2.274
382.110,2.271
382.324,2.295
382.538,2.357
382.753,2.408
382.969,2.344
383.185,2.232
383.402,2.145
383.619,2.162
383.837,2.222
384.055,2.315
384.274,2.390
384.493,2.403
384.712,2.373
384.932,2.343
385.153,2.336
385.374,2.332
385.596,2.331
385.818,2.381
386.040,2.448
386.263,2.496
386.487,2.472
386.710,2.418
386.935,2.330
387.159,2.277
387.385,2.225
387.610,2.197
387.836,2.178
388.063,2.184
388.289,2.210
388.517,2.222
388.744,2.208
388.972,2.233
389.201,2.248
389.430,2.263
389.659,2.241
389.889,2.244
390.119,2.257
390.349,2.265
390.580,2.278
390.811,2.271
391.042,2.265
391.274,2.263
391.507,2.269
391.739,2.242
391.972,2.189
392.205,2.177
392.439,2.215
392.673,2.248
392.907,2.265
393.142,2.283
393.377,2.308
393.612,2.330
393.848,2.320
394.084,2.305
394.320,2.272
394.557,2.279
394.794,2.284
395.031,2.323
395.269,2.349
395.507,2.373
395.745,2.357
395.983,2.336
396.222,2.347
396.461,2.408
396.700,2.495
396.940,2.525
397.180,2.503
397.420,2.422
397.660,2.355
397.901,2.297
398.142,2.288
398.383,2.250
398.625,2.209
398.866,2.211
399.108,2.311
399.351,2.469
399.593,2.499
399.836,2.444
400.079,2.329
400.322,2.257
400.566,2.196
400.809,2.157
401.053,2.165
401.298,2.184
401.542,2.235
401.787,2.285
402.031,2.337
402.277,2.355
402.522,2.348
402.767,2.344
403.013,2.308
403.259,2.283
403.505,2.254
403.752,2.240
403.998,2.230
404.245,2.290
404.492,2.383
404.739,2.447
404.986,2.466
405.234,2.470
405.482,2.466
405.730,2.421
405.978,2.393
406.226,2.336
406.475,2.261
406.723,2.195
406.972,2.201
407.221,2.239
407.470,2.255
407.720,2.256
407.969,2.208
408.219,2.209
408.469,2.235
408.719,2.289
408.969,2.292
409.219,2.295
409.470,2.308
409.720,2.337
409.971,2.358
410.222,2.397
410.473,2.398
410.724,2.365
410.976,2.355
411.227,2.380
411.479,2.390
411.731,2.360
411.983,2.305
412.235,2.272
412.487,2.244
412.740,2.253
412.992,2.271
413.245,2.289
413.497,2.276
413.750,2.257
414.003,2.214
414.257,2.155
414.510,2.124
414.763,2.153
415.017,2.203
415.270,2.230
415.524,2.223
415.778,2.214
416.032,2.218
416.286,2.261
416.540,2.304
416.794,2.339
417.049,2.330
417.303,2.327
417.558,2.350
417.812,2.367
418.067,2.372
418.322,2.354
418.577,2.343
418.832,2.315
419.088,2.258
419.343,2.236
419.598,2.204
419.854,2.217
420.109,2.240
420.365,2.317
420.621,2.364
420.876,2.405
421.132,2.404
421.388,2.369
421.645,2.318
421.901,2.298
422.157,2.308
422.413,2.315
422.670,2.293
422.926,2.263
423.183,2.198
423.439,2.194
423.696,2.240
423.953,2.386
424.210,2.497
424.467,2.505
424.724,2.437
424.981,2.327
425.238,2.293
425.495,2.317
425.753,2.358
426.010,2.372
426.267,2.340
426.525,2.346
426.782,2.360
427.040,2.383
427.298,2.410
427.555,2.439
427.813,2.446
428.071,2.436
428.329,2.427
428.587,2.407
428.845,2.402
429.103,2.384
429.361,2.371
429.619,2.331
429.878,2.310
430.136,2.316
430.394,2.315
430.653,2.372
430.911,2.478
431.170,2.601
431.428,2.625
431.687,2.572
431.946,2.493
432.204,2.444
432.463,2.448
432.722,2.432
432.981,2.406
433.240,2.385
433.499,2.412
433.758,2.483
434.017,2.484
434.276,2.425
434.535,2.304
434.794,2.200
435.053,2.169
435.312,2.180
435.572,2.197
435.831,2.196
436.090,2.231
436.350,2.273
436.609,2.314
436.869,2.296
437.128,2.268
437.388,2.214
437.647,2.203
437.907,2.229
438.166,2.260
438.426,2.234
438.686,2.196
438.946,2.168
439.205,2.190
439.465,2.220
439.725,2.293
439.985,2.350
440.245,2.353
440.505,2.328
440.765,2.301
441.025,2.273
441.285,2.282
441.545,2.314
441.805,2.358
442.065,2.310
442.325,2.219
442.585,2.167
442.846,2.160
443.106,2.217
443.366,2.279
443.626,2.325
443.887,2.336
444.147,2.290
444.407,2.267
444.668,2.233
444.928,2.225
445.189,2.229
445.449,2.253
445.710,2.265
445.970,2.269
446.231,2.261
446.491,2.290
446.752,2.279
447.012,2.287
447.273,2.334
447.534,2.395
447.794,2.375
448.055,2.277
448.316,2.215
448.577,2.223
448.837,2.258
449.098,2.312
449.359,2.363
449.620,2.371
449.881,2.321
450.142,2.254
450.403,2.250
450.664,2.277
450.924,2.293
451.185,2.280
451.446,2.282
451.707,2.299
451.969,2.351
452.230,2.378
452.491,2.432
452.752,2.428
453.013,2.401
453.274,2.372
453.535,2.368
453.796,2.335
454.058,2.262
454.319,2.224
454.580,2.260
454.841,2.342
455.103,2.346
455.364,2.286
455.625,2.222
455.887,2.208
456.148,2.237
456.409,2.289
456.671,2.348
456.932,2.384
457.194,2.370
457.455,2.350
457.716,2.344
457.978,2.377
458.239,2.391
458.501,2.394
458.763,2.340
459.024,2.292
459.286,2.269
459.547,2.284
459.809,2.273
460.071,2.287
460.332,2.335
460.594,2.395
460.856,2.405
461.117,2.347
461.379,2.343
461.641,2.361
461.903,2.389
462.164,2.381
462.426,2.373
462.688,2.373
462.950,2.357
463.212,2.364
463.474,2.327
463.736,2.301
463.998,2.309
464.260,2.397
464.522,2.512
464.784,2.530
465.046,2.442
465.308,2.349
465.570,2.317
465.832,2.358
466.094,2.401
466.356,2.456
466.618,2.508
466.880,2.499
467.142,2.422
467.405,2.354
467.667,2.376
467.929,2.451
468.191,2.536
468.454,2.572
468.716,2.612
468.978,2.616
469.241,2.552
469.503,2.482
469.765,2.430
470.028,2.450
470.290,2.400
470.552,2.315
470.815,2.238
471.077,2.224
471.340,2.261
471.602,2.278
471.865,2.243
472.128,2.163
472.390,2.115
472.653,2.109
472.915,2.130
473.178,2.145
473.441,2.187
473.703,2.244
473.966,2.326
474.229,2.391
474.492,2.421
474.755,2.360
475.017,2.324
475.280,2.301
475.543,2.345
475.806,2.315
476.069,2.267
476.332,2.218
476.595,2.229
476.858,2.243
477.121,2.216
477.384,2.165
477.647,2.159
477.910,2.193
478.173,2.229
478.436,2.217
478.699,2.206
478.962,2.191
479.226,2.234
479.489,2.269
479.752,2.326
480.015,2.377
480.279,2.450
480.542,2.503
480.805,2.499
481.069,2.442
481.332,2.382
481.595,2.352
481.859,2.399
482.122,2.441
482.386,2.439
482.649,2.389
482.913,2.331
483.177,2.275
483.440,2.182
483.704,2.112
483.967,2.126
484.231,2.201
484.495,2.297
484.759,2.359
485.022,2.368
485.286,2.360
485.550,2.337
485.814,2.267
486.078,2.180
486.342,2.131
486.606,2.185
486.869,2.249
487.133,2.299
487.397,2.355
487.662,2.396
487.926,2.396
488.190,2.377
488.454,2.369
488.718,2.385
488.982,2.359
489.246,2.349
489.511,2.327
489.775,2.323
490.039,2.333
490.304,2.327
490.568,2.298
490.832,2.267
491.097,2.292
491.361,2.335
491.626,2.364
491.890,2.364
492.155,2.369
492.419,2.383
492.684,2.365
492.949,2.355
493.213,2.376
493.478,2.453
493.743,2.473
494.008,2.389
494.272,2.287
494.537,2.266
494.802,2.314
495.067,2.387
495.332,2.449
495.597,2.499
495.862,2.497
496.127,2.481
496.392,2.437
496.657,2.369
496.922,2.308
497.187,2.291
497.452,2.325
497.718,2.407
497.983,2.452
498.248,2.459
498.513,2.402
498.779,2.423
499.044,2.484
499.310,2.500
499.575,2.443
499.841,2.393
500.106,2.391
500.372,2.362
500.637,2.359
500.903,2.424
501.168,2.500
501.434,2.494
501.700,2.394
501.966,2.341
502.231,2.309
502.497,2.302
502.763,2.254
503.029,2.207
503.295,2.198
503.561,2.207
503.827,2.259
504.093,2.297
504.359,2.323
504.625,2.329
504.891,2.301
505.157,2.303
505.423,2.252
505.690,2.191
505.956,2.134
506.222,2.161
506.489,2.281
506.755,2.412
507.021,2.502
507.288,2.544
507.554,2.518
507.821,2.491
508.087,2.463
508.354,2.519
508.621,2.550
508.887,2.535
509.154,2.487
509.421,2.457
509.687,2.415
509.954,2.366
510.221,2.326
510.488,2.371
510.755,2.434
511.022,2.505
511.289,2.474
511.556,2.431
511.823,2.392
512.090,2.467
512.357,2.502
512.624,2.523
512.891,2.485
513.159,2.460
513.426,2.439
513.693,2.451
513.960,2.486
514.228,2.488
514.495,2.470
514.763,2.442
515.030,2.426
515.298,2.379
515.565,2.364
515.833,2.366
516.100,2.379
516.368,2.379
516.636,2.368
516.904,2.399
517.171,2.387
517.439,2.390
517.707,2.350
517.975,2.346
518.243,2.366
518.511,2.390
518.779,2.336
519.047,2.312
519.315,2.306
519.583,2.320
519.851,2.260
520.119,2.213
520.387,2.201
520.656,2.218
520.924,2.249
521.192,2.289
521.461,2.328
521.729,2.363
521.997,2.393
522.266,2.404
522.534,2.395
522.803,2.397
523.071,2.384
523.340,2.328
523.609,2.254
523.877,2.214
524.146,2.224
524.415,2.257
524.684,2.297
524.952,2.292
525.221,2.276
525.490,2.302
525.759,2.357
526.028,2.390
526.297,2.326
526.566,2.267
526.835,2.227
527.104,2.243
527.373,2.277
527.642,2.295
527.912,2.268
528.181,2.226
528.450,2.219
528.719,2.262
528.989,2.351
529.258,2.432
529.528,2.460
529.797,2.414
530.067,2.388
530.336,2.361
530.606,2.345
530.875,2.287
531.145,2.263
531.414,2.268
531.684,2.322
531.954,2.341
532.224,2.324
532.493,2.228
532.763,2.171
533.033,2.171
533.303,2.224
533.573,2.281
533.843,2.256
534.113,2.230
534.383,2.177
534.653,2.183
534.923,2.208
535.193,2.245
535.463,2.309
535.733,2.361
536.004,2.404
536.274,2.415
536.544,2.378
536.814,2.321
537.085,2.252
537.355,2.263
537.626,2.338
537.896,2.408
538.166,2.424
538.437,2.394
538.707,2.353
538.978,2.342
539.249,2.379
539.519,2.406
539.790,2.363
540.061,2.315
540.331,2.340
540.602,2.438
540.873,2.508
541.144,2.532
541.414,2.507
541.685,2.487
541.956,2.462
542.227,2.446
542.498,2.405
542.769,2.379
543.040,2.399
543.311,2.479
543.582,2.572
543.853,2.615
544.124,2.630
544.396,2.644
544.667,2.651
544.938,2.639
545.209,2.507
545.480,2.421
545.752,2.368
546.023,2.439
546.294,2.441
546.566,2.402
546.837,2.329
547.109,2.301
547.380,2.296
547.652,2.291
547.923,2.287
548.195,2.332
548.466,2.422
548.738,2.532
549.009,2.550
549.281,2.505
549.553,2.406
549.824,2.294
550.096,2.223
550.368,2.207
550.640,2.241
550.911,2.292
551.183,2.378
551.455,2.509
551.727,2.604
551.999,2.588
552.271,2.483
552.543,2.390
552.815,2.342
553.087,2.385
553.359,2.448
553.631,2.491
553.903,2.487
554.175,2.494
554.447,2.533
554.719,2.555
554.991,2.552
555.263,2.529
555.535,2.492
555.808,2.447
556.080,2.394
556.352,2.368
556.624,2.360
556.897,2.353
557.169,2.350
557.441,2.338
557.714,2.314
557.986,2.310
558.258,2.286
558.531,2.331
558.803,2.371
559.076,2.418
559.348,2.395
559.621,2.348
559.893,2.340
560.166,2.351
560.438,2.362
560.711,2.332
560.983,2.310
561.256,2.307
561.528,2.343
561.801,2.394
562.074,2.466
562.346,2.533
562.619,2.593
562.892,2.589
563.164,2.545
563.437,2.514
563.710,2.500
563.983,2.456
564.255,2.387
564.528,2.395
564.801,2.477
565.074,2.545
565.346,2.517
565.619,2.474
565.892,2.489
566.165,2.492
566.438,2.432
566.711,2.347
566.984,2.324
567.257,2.339
567.529,2.387
567.802,2.469
568.075,2.559
568.348,2.567
568.621,2.549
568.894,2.508
569.167,2.490
569.440,2.446
569.713,2.366
569.986,2.335
570.259,2.310
570.532,2.360
570.805,2.402
571.078,2.434
571.351,2.455
571.625,2.472
571.898,2.452
572.171,2.390
572.444,2.333
572.717,2.362
572.990,2.450
573.263,2.467
573.536,2.421
573.809,2.325
574.083,2.292
574.356,2.316
574.629,2.424
574.902,2.495
575.175,2.513
575.448,2.443
575.721,2.398
575.995,2.383
576.268,2.394
576.541,2.439
576.814,2.492
577.087,2.546
577.361,2.562
577.634,2.553
577.907,2.493
578.180,2.413
578.453,2.368
578.727,2.391
579.000,2.431
579.273,2.474
579.546,2.543
579.820,2.636
580.093,2.668
580.366,2.632
580.639,2.548
580.913,2.517
581.186,2.507
581.459,2.522
581.732,2.477
582.005,2.454
582.279,2.426
582.552,2.455
582.825,2.481
583.098,2.515
583.372,2.555
583.645,2.586
583.918,2.625
584.191,2.638
584.464,2.638
584.738,2.624
585.011,2.617
585.284,2.604
585.557,2.588
585.831,2.602
586.104,2.680
586.377,2.807
586.650,2.895
586.923,2.901
587.196,2.856
587.470,2.769
587.743,2.711
588.016,2.668
588.289,2.686
588.562,2.746
588.835,2.774
589.109,2.751
589.382,2.694
589.655,2.647
589.928,2.632
590.201,2.623
590.474,2.687
590.747,2.768
591.020,2.853
591.293,2.879
591.567,2.879
591.840,2.834
592.113,2.788
592.386,2.719
592.659,2.666
592.932,2.647
593.205,2.693
593.478,2.742
593.751,2.742
594.024,2.723
594.297,2.695
594.570,2.697
594.843,2.744
595.116,2.815
595.389,2.867
595.662,2.857
595.934,2.864
596.207,2.903
596.480,2.968
596.753,3.029
597.026,3.041
597.299,3.038
597.572,3.020
597.844,3.003
598.117,2.943
598.390,2.892
598.663,2.863
598.936,2.894
599.208,2.938
599.481,2.981
599.754,3.013
600.026,2.965
600.299,2.913
600.572,2.877
600.844,2.888
601.117,2.871
601.390,2.862
601.662,2.877
601.935,2.897
602.207,2.914
602.480,2.958
602.752,3.005
603.025,3.009
603.297,3.012
603.570,3.080
603.842,3.228
604.115,3.330
604.387,3.402
604.660,3.390
604.932,3.398
605.204,3.441
605.477,3.539
605.749,3.676
606.021,3.784
606.294,3.876
606.566,3.895
606.838,3.962
607.110,4.079
607.383,4.283
607.655,4.484
607.927,4.699
608.199,4.896
608.471,5.047
608.743,5.107
609.015,5.120
609.287,5.132
609.559,5.170
609.831,5.239
610.103,5.286
610.375,5.291
610.647,5.218
610.919,5.090
611.191,4.966
611.463,4.874
611.735,4.797
612.007,4.672
612.278,4.560
612.550,4.494
612.822,4.512
613.094,4.557
613.365,4.555
613.637,4.588
613.909,4.597
614.180,4.642
614.452,4.621
614.723,4.574
614.995,4.513
615.266,4.495
615.538,4.569
615.809,4.674
616.081,4.721
616.352,4.703
616.623,4.681
616.895,4.708
617.166,4.731
617.437,4.764
617.709,4.817
617.980,4.915
618.251,5.031
618.522,5.148
618.793,5.282
619.065,5.456
619.336,5.530
619.607,5.530
619.878,5.522
620.149,5.628
620.420,5.727
620.691,5.764
620.962,5.799
621.232,5.910
621.503,5.981
621.774,6.037
622.045,6.075
622.316,6.220
622.586,6.386
622.857,6.575
623.128,6.692
623.398,6.784
623.669,6.839
623.940,6.893
624.210,6.937
624.481,7.071
624.751,7.216
625.021,7.353
625.292,7.413
625.562,7.532
625.833,7.659
626.103,7.798
626.373,7.886
626.643,8.020
626.914,8.172
627.184,8.369
627.454,8.540
627.724,8.685
627.994,8.821
628.264,8.966
628.534,9.090
628.804,9.197
629.074,9.348
629.344,9.528
629.614,9.709
629.884,9.829
630.154,9.941
630.424,10.044
630.693,10.140
630.963,10.224
631.233,10.313
631.502,10.480
631.772,10.748
632.041,11.043
632.311,11.289
632.581,11.472
632.850,11.638
633.119,11.738
633.389,11.828
633.658,11.952
633.928,12.198
634.197,12.518
634.466,12.859
634.735,13.181
635.004,13.411
635.274,13.619
635.543,13.823
635.812,14.080
636.081,14.369
636.350,14.680
636.619,15.011
636.888,15.326
637.157,15.639
637.426,15.982
637.694,16.338
637.963,16.673
638.232,17.012
638.501,17.361
638.769,17.777
639.038,18.209
639.307,18.671
639.575,19.121
639.844,19.483
640.112,19.816
640.381,20.151
640.649,20.581
640.917,21.091
641.186,21.623
641.454,22.205
641.722,22.770
641.991,23.357
642.259,23.891
642.527,24.445
642.795,25.052
643.063,25.663
643.331,26.332
643.599,27.008
643.867,27.810
644.135,28.593
644.403,29.419
644.671,30.162
644.939,30.949
645.206,31.711
645.474,32.535
645.742,33.329
646.009,34.111
646.277,34.939
646.545,35.811
646.812,36.778
647.080,37.743
647.347,38.701
647.615,39.592
647.882,40.423
648.149,41.248
648.417,42.100
648.684,43.038
648.951,44.053
649.219,45.101
649.486,46.134
649.753,47.144
650.020,48.106
650.287,49.002
650.554,49.829
650.821,50.623
651.088,51.397
651.355,52.229
651.622,53.051
651.889,53.917
652.155,54.733
652.422,55.580
652.689,56.446
652.956,57.316
653.222,58.159
653.489,59.034
653.755,59.851
654.022,60.608
654.288,61.319
654.555,62.157
654.821,63.181
655.088,64.329
655.354,65.541
655.620,66.813
655.887,68.119
656.153,69.480
656.419,70.865
656.685,72.276
656.951,73.724
657.217,75.177
657.483,76.630
657.749,78.002
658.015,79.275
658.281,80.344
658.547,81.131
658.813,81.623
659.079,81.852
659.345,81.849
659.610,81.635
659.876,81.185
660.142,80.499
660.407,79.557
660.673,78.379
660.939,76.982
661.204,75.307
661.470,73.377
661.735,71.227
662.000,68.935
662.266,66.459
662.531,63.798
662.796,61.002
663.062,58.165
663.327,55.316
663.592,52.555
663.857,49.897
664.122,47.355
664.388,44.904
664.653,42.586
664.918,40.458
665.183,38.471
665.448,36.673
665.712,35.016
665.977,33.507
666.242,32.070
666.507,30.632
666.772,29.301
667.037,28.079
667.301,27.059
667.566,26.108
667.831,25.240
668.095,24.407
668.360,23.636
668.624,22.840
668.889,22.138
669.153,21.448
669.418,20.826
669.682,20.217
669.946,19.660
670.211,19.167
670.475,18.646
670.739,18.127
671.004,17.606
671.268,17.149
671.532,16.740
671.796,16.133
672.060,15.484
672.324,14.794
672.588,14.291
672.852,13.830
673.116,13.503
673.380,13.235
673.644,12.708
673.908,12.043
674.172,11.332
674.436,10.895
674.700,10.501
674.963,10.139
675.227,9.767
675.491,9.331
675.754,8.906
676.018,8.505
676.282,8.207
676.545,7.896
676.809,7.548
677.072,7.189
677.336,6.854
677.599,6.597
677.863,6.342
678.126,6.128
678.389,5.973
678.653,5.840
678.916,5.653
679.179,5.364
679.442,5.107
679.706,4.941
679.969,4.810
680.232,4.688
680.495,4.587
680.758,4.512
681.021,4.383
681.284,4.188
681.547,3.994
681.810,3.897
682.073,3.887
682.336,3.871
682.599,3.783
682.862,3.670
683.125,3.599
683.388,3.582
683.651,3.536
683.913,3.468
684.176,3.328
684.439,3.177
684.702,3.011
684.964,2.920
685.227,2.892
685.490,2.933
685.752,3.021
686.015,3.039
686.277,2.991
686.540,2.887
686.802,2.789
687.065,2.758
687.327,2.759
687.590,2.777
687.852,2.727
688.115,2.630
688.377,2.561
688.639,2.536
688.902,2.539
689.164,2.563
689.426,2.632
689.689,2.701
689.951,2.706
690.213,2.673
690.475,2.639
690.737,2.618
691.000,2.577
691.262,2.547
691.524,2.563
691.786,2.621
692.048,2.682
692.310,2.671
692.572,2.565
692.834,2.437
693.096,2.379
693.358,2.433
693.620,2.531
693.882,2.619
694.144,2.644
694.406,2.601
694.668,2.544
694.930,2.485
695.192,2.450
695.453,2.449
695.715,2.463
695.977,2.456
696.239,2.405
696.501,2.378
696.762,2.407
697.024,2.440
697.286,2.411
697.548,2.372
697.809,2.349
698.071,2.342
698.333,2.334
698.594,2.328
698.856,2.366
699.118,2.400
699.379,2.430
699.641,2.465
699.902,2.509
700.164,2.522
700.426,2.491
700.687,2.427
700.949,2.403
701.210,2.390
701.472,2.372
701.733,2.331
701.995,2.324
702.256,2.336
702.518,2.352
702.779,2.339
703.041,2.392
703.302,2.477
703.563,2.505
703.825,2.455
704.086,2.389
704.348,2.372
704.609,2.396
704.871,2.459
705.132,2.533
705.393,2.519
705.655,2.474
705.916,2.449
706.177,2.476
706.439,2.505
706.700,2.517
706.961,2.524
707.223,2.542
707.484,2.481
707.745,2.427
708.007,2.371
708.268,2.344
708.529,2.317
708.790,2.249
709.052,2.217
709.313,2.238
709.574,2.301
709.835,2.359
710.097,2.359
710.358,2.291
710.619,2.221
710.881,2.152
711.142,2.133
711.403,2.105
711.664,2.119
711.926,2.088
712.187,2.115
712.448,2.146
712.709,2.224
712.970,2.284
713.232,2.325
713.493,2.349
713.754,2.353
714.015,2.358
714.277,2.395
714.538,2.447
714.799,2.532
715.060,2.565
715.322,2.563
715.583,2.503
715.844,2.445
716.105,2.381
716.367,2.327
716.628,2.310
716.889,2.317
717.150,2.305
717.411,2.266
717.673,2.268
717.934,2.308
718.195,2.358
718.457,2.340
718.718,2.269
718.979,2.225
719.240,2.232
719.502,2.291
719.763,2.345
720.024,2.377
720.286,2.392
720.547,2.358
720.808,2.312
721.069,2.281
721.331,2.307
721.592,2.380
721.853,2.421
722.115,2.436
722.376,2.435
722.638,2.419
722.899,2.413
723.160,2.368
723.422,2.334
723.683,2.303
723.944,2.334
724.206,2.357
724.467,2.360
724.729,2.330
724.990,2.350
725.252,2.393
725.513,2.374
725.775,2.293
726.036,2.221
726.298,2.210
726.559,2.257
726.821,2.272
727.082,2.287
727.344,2.266
727.605,2.269
727.867,2.243
728.128,2.260
728.390,2.269
728.652,2.323
728.913,2.402
729.175,2.463
729.436,2.475
729.698,2.473
729.960,2.441
730.221,2.408
730.483,2.314
730.745,2.278
731.007,2.270
731.268,2.280
731.530,2.293
731.792,2.302
732.054,2.335
732.315,2.362
732.577,2.389
732.839,2.362
733.101,2.312
733.363,2.273
733.625,2.264
733.887,2.286
734.149,2.293
734.411,2.325
734.673,2.347
734.935,2.366
735.197,2.347
735.459,2.363
735.721,2.378
735.983,2.376
736.245,2.299
736.507,2.274
736.769,2.305
737.031,2.363
737.293,2.347
737.555,2.280
737.818,2.231
738.080,2.195
738.342,2.199
738.604,2.196
738.867,2.211
739.129,2.208
739.391,2.208
739.654,2.212
739.916,2.234
740.178,2.278
740.441,2.344
740.703,2.378
740.966,2.348
741.228,2.299
741.491,2.251
741.753,2.262
742.016,2.267
742.278,2.279
742.541,2.292
742.804,2.313
743.066,2.359
743.329,2.383
743.592,2.362
743.854,2.349
744.117,2.361
744.380,2.399
744.643,2.389
744.905,2.338
745.168,2.309
745.431,2.290
745.694,2.276
745.957,2.251
746.220,2.234
746.483,2.223
746.746,2.222
747.009,2.267
747.272,2.379
747.535,2.482
747.798,2.511
748.061,2.436
748.324,2.328
748.588,2.256
748.851,2.247
749.114,2.258
749.377,2.295
749.641,2.305
749.904,2.339
750.167,2.386
750.431,2.429
750.694,2.470
750.958,2.479
751.221,2.449
751.485,2.350
751.748,2.273
752.012,2.269
752.275,2.369
752.539,2.419
752.803,2.403
753.066,2.322
753.330,2.262
753.594,2.249
753.857,2.250
754.121,2.290
754.385,2.340
754.649,2.388
754.913,2.406
755.177,2.438
755.441,2.418
755.705,2.367
755.969,2.277
756.233,2.285
756.497,2.321
756.761,2.340
757.025,2.300
757.289,2.269
757.553,2.261
757.818,2.286
758.082,2.320
758.346,2.343
758.610,2.360
758.875,2.356
759.139,2.351
759.404,2.325
759.668,2.297
759.932,2.308
760.197,2.352
760.462,2.383
760.726,2.377
760.991,2.360
761.255,2.358
761.520,2.360
761.785,2.331
762.049,2.263
762.314,2.206
762.579,2.214
762.844,2.285
763.109,2.349
763.374,2.355
763.639,2.336
763.903,2.295
764.168,2.268
764.433,2.252
764.699,2.310
764.964,2.359
765.229,2.361
765.494,2.295
765.759,2.249
766.024,2.235
766.290,2.271
766.555,2.324
766.820,2.365
767.086,2.396
767.351,2.402
767.616,2.397
767.882,2.365
768.147,2.330
768.413,2.300
768.678,2.259
768.944,2.249
769.209,2.275
769.475,2.343
769.741,2.406
770.006,2.454
770.272,2.483
770.538,2.480
770.804,2.449
771.070,2.423
771.335,2.442
771.601,2.502
771.867,2.533
772.133,2.515
772.399,2.476
772.665,2.401
772.931,2.368
773.197,2.392
773.464,2.462
773.730,2.528
773.996,2.527
774.262,2.537
774.528,2.515
774.795,2.522
775.061,2.546
775.327,2.556
775.594,2.510
775.860,2.423
776.126,2.315
776.393,2.240
776.659,2.202
776.926,2.189
777.193,2.204
777.459,2.234
777.726,2.245
777.992,2.255
778.259,2.219
778.526,2.239
778.793,2.253
779.059,2.292
779.326,2.340
779.593,2.379
779.860,2.435
780.127,2.441
780.394,2.435
780.661,2.419
780.928,2.385
781.195,2.343
781.462,2.294
781.729,2.295
781.996,2.315
782.263,2.334
782.530,2.377
782.797,2.415
783.064,2.393
783.332,2.339
783.599,2.273
783.866,2.279
784.134,2.274
784.401,2.280
784.668,2.283
784.936,2.298
785.203,2.292
785.470,2.242
785.738,2.210
786.005,2.200
786.273,2.204
786.541,2.184
786.808,2.191
787.076,2.210
787.343,2.249
787.611,2.290
787.879,2.369
788.146,2.385
788.414,2.417
788.682,2.381
788.950,2.379
789.217,2.368
789.485,2.425
789.753,2.483
790.021,2.450
790.289,2.351
790.557,2.229
790.825,2.181
791.093,2.206
791.361,2.300
791.629,2.388
791.897,2.443
792.165,2.430
792.433,2.395
792.701,2.296
792.969,2.204
793.237,2.136
793.505,2.171
793.773,2.249
794.042,2.282
794.310,2.267
794.578,2.243
794.846,2.244
795.115,2.250
795.383,2.257
795.651,2.307
795.920,2.347
796.188,2.351
796.456,2.363
796.725,2.366
796.993,2.413
797.261,2.429
797.530,2.419
797.798,2.381
798.067,2.385
798.335,2.439
798.604,2.452
798.872,2.378
799.141,2.286
799.409,2.243
799.678,2.257
799.946,2.300
800.215,2.327
800.483,2.314
800.752,2.297
801.020,2.278
801.289,2.276
801.558,2.276
801.826,2.298
802.095,2.283
802.363,2.278
802.632,2.282
802.901,2.332
803.169,2.368
803.438,2.359
803.707,2.309
803.976,2.232
804.244,2.207
804.513,2.218
804.782,2.212
805.050,2.198
805.319,2.215
805.588,2.280
805.857,2.349
806.125,2.365
806.394,2.349
806.663,2.288
806.931,2.229
807.200,2.188
807.469,2.199
807.738,2.206
808.006,2.209
808.275,2.239
808.544,2.319
808.813,2.398
809.082,2.409
809.350,2.362
809.619,2.328
809.888,2.299
810.157,2.281
810.425,2.251
810.694,2.239
810.963,2.267
811.232,2.265
811.500,2.238
811.769,2.170
812.038,2.167
812.306,2.211
812.575,2.295
812.844,2.338
813.113,2.358
813.381,2.318
813.650,2.312
813.919,2.337
814.187,2.395
814.456,2.425
814.725,2.439
814.993,2.415
815.262,2.394
815.531,2.363
815.799,2.354
816.068,2.319
816.336,2.252
816.605,2.223
816.873,2.238
817.142,2.296
817.411,2.352
817.679,2.377
817.948,2.421
818.216,2.489
818.485,2.643
818.753,2.782
819.021,2.716
819.290,2.491
819.558,2.292
819.827,2.282
820.095,2.358
820.363,2.398
820.632,2.393
820.900,2.375
821.168,2.378
821.437,2.418
821.705,2.436
821.973,2.449
822.241,2.433
822.509,2.436
822.777,2.393
823.046,2.359
823.314,2.357
823.582,2.393
823.850,2.422
824.118,2.438
824.386,2.431
824.654,2.348
824.922,2.244
825.190,2.163
825.457,2.209
825.725,2.293
825.993,2.314
826.261,2.278
826.529,2.250
826.796,2.257
827.064,2.253
827.332,2.248
827.599,2.276
827.867,2.361
828.134,2.410
828.402,2.369
828.669,2.293
828.937,2.246
829.204,2.304
829.471,2.428
829.739,2.505
830.006,2.524
830.273,2.454
830.540,2.383
830.807,2.285
831.075,2.249
831.342,2.281
831.609,2.326
831.876,2.366
832.142,2.386
832.409,2.414
832.676,2.392
832.943,2.316
833.210,2.248
833.476,2.220
833.743,2.248
834.010,2.285
834.276,2.265
834.543,2.215
834.809,2.207
835.076,2.245
835.342,2.273
835.608,2.325
835.874,2.389
836.141,2.403
836.407,2.371
836.673,2.300
836.939,2.284
837.205,2.267
837.471,2.268
837.737,2.275
838.002,2.279
838.268,2.265
838.534,2.288
838.799,2.285
839.065,2.326
839.330,2.340
839.596,2.363
839.861,2.379
840.127,2.410
840.392,2.437
840.657,2.447
840.922,2.471
841.187,2.512
841.452,2.514
841.717,2.503
841.982,2.450
842.247,2.382
842.511,2.309
842.776,2.291
843.041,2.322
843.305,2.318
843.570,2.290
843.834,2.276
844.098,2.262
844.362,2.270
844.627,2.246
844.891,2.247
845.155,2.263
845.419,2.311
845.682,2.354
845.946,2.367
846.210,2.380
846.474,2.369
846.737,2.373
847.001,2.351
847.264,2.278
847.527,2.227
847.790,2.211
848.054,2.248
848.317,2.227
848.580,2.199
848.843,2.193
849.105,2.272
849.368,2.375
849.631,2.446
849.893,2.474
850.156,2.505
850.418,2.520
850.680,2.445
850.943,2.354
851.205,2.343
851.467,2.362
851.729,2.341
851.991,2.310
852.252,2.336
852.514,2.405
852.776,2.437
853.037,2.463
853.298,2.453
853.560,2.402
853.821,2.313
854.082,2.210
854.343,2.211
854.604,2.297
854.865,2.466
855.126,2.564
855.386,2.614
855.647,2.592
855.907,2.548
856.168,2.469
856.428,2.384
856.688,2.341
856.948,2.264
857.208,2.195
857.468,2.175
857.727,2.228
857.987,2.283
858.247,2.313
858.506,2.365
858.765,2.397
859.024,2.351
859.284,2.277
859.543,2.216
859.801,2.203
860.060,2.211
860.319,2.283
860.577,2.372
860.836,2.425
861.094,2.446
861.352,2.443
861.611,2.408
861.869,2.332
862.127,2.282
862.384,2.304
862.642,2.327
862.900,2.381
863.157,2.408
863.414,2.396
863.672,2.321
863.929,2.218
864.186,2.186
864.443,2.216
864.699,2.260
864.956,2.293
865.212,2.240
865.469,2.210
865.725,2.222
865.981,2.297
866.237,2.340
866.493,2.361
866.749,2.316
867.005,2.287
867.260,2.234
867.516,2.203
867.771,2.175
868.026,2.173
868.282,2.247
868.536,2.309
868.791,2.323
869.046,2.255
869.301,2.201
869.555,2.199
869.809,2.270
870.064,2.337
870.318,2.384
870.572,2.426
870.826,2.367
871.079,2.298
871.333,2.230
871.586,2.248
871.840,2.261
872.093,2.251
872.346,2.278
872.599,2.362
872.852,2.465
873.105,2.518
873.357,2.489
873.610,2.405
873.862,2.380
874.114,2.398
874.366,2.435
874.618,2.406
874.870,2.305
875.121,2.199
875.373,2.154
875.624,2.185
875.876,2.222
876.127,2.227
876.378,2.228
876.629,2.222
876.879,2.250
877.130,2.274
877.381,2.261
877.631,2.194
877.881,2.139
878.131,2.181
878.381,2.285
878.631,2.417
878.881,2.482
879.130,2.485
879.380,2.432
879.629,2.379
879.878,2.328
880.127,2.298
880.376,2.300
880.625,2.355
880.873,2.423
881.122,2.471
881.370,2.475
881.618,2.425
881.866,2.359
882.114,2.296
882.362,2.265
882.610,2.288
882.857,2.322
883.105,2.348
883.352,2.287
883.599,2.220
883.846,2.166
884.093,2.160
884.340,2.199
884.586,2.274
884.833,2.332
885.079,2.360
885.325,2.326
885.571,2.312
885.817,2.292
886.063,2.326
886.309,2.345
886.554,2.397
886.800,2.425
887.045,2.445
887.290,2.390
887.535,2.299
887.780,2.256
888.025,2.295
888.270,2.390
888.514,2.491
888.758,2.510
889.003,2.485
889.247,2.360
889.491,2.335
889.735,2.361
889.978,2.445
890.222,2.449
890.465,2.407
890.709,2.352
890.952,2.294
891.195,2.240
891.438,2.219
891.681,2.196
891.923,2.201
892.166,2.226
892.408,2.259
892.651,2.241
892.893,2.192
893.135,2.162
893.377,2.172
893.619,2.193
893.861,2.239
894.102,2.293
894.344,2.389
894.585,2.491
894.826,2.563
895.067,2.516
895.308,2.435
895.549,2.332
895.790,2.278
896.031,2.214
896.271,2.227
896.512,2.306
896.752,2.387
896.992,2.393
897.232,2.330
897.472,2.273
897.712,2.308
897.952,2.404
898.191,2.465
898.431,2.448
898.670,2.451
898.910,2.472
899.149,2.540
899.388,2.573
899.627,2.576
899.866,2.524
900.105,2.430
900.343,2.372
900.582,2.360
900.820,2.390
901.059,2.459
901.297,2.511
901.535,2.455
901.773,2.330
902.011,2.221
902.249,2.150
902.487,2.131
902.725,2.136
902.963,2.209
903.200,2.242
903.438,2.239
903.675,2.243
903.912,2.281
904.150,2.359
904.387,2.395
904.624,2.345
904.861,2.263
905.098,2.191
905.334,2.211
905.571,2.206
905.808,2.216
906.045,2.257
906.281,2.321
906.518,2.350
906.754,2.370
906.990,2.380
907.227,2.384
907.463,2.321
907.699,2.268
907.935,2.273
908.171,2.336
908.407,2.351
908.643,2.342
908.879,2.317
909.115,2.353
909.350,2.384
909.586,2.399
909.822,2.395
910.057,2.440
910.293,2.556
910.528,2.648
910.764,2.624
910.999,2.589
911.235,2.519
911.470,2.531
911.706,2.482
911.941,2.466
912.176,2.420
912.412,2.364
912.647,2.341
912.882,2.360
913.117,2.384
913.352,2.374
913.588,2.321
913.823,2.289
914.058,2.270
914.293,2.288
914.528,2.273
914.763,2.244
914.999,2.220
915.234,2.223
915.469,2.256
915.704,2.267
915.939,2.257
916.174,2.232
916.409,2.228
916.645,2.302
916.880,2.377
917.115,2.431
917.350,2.399
917.586,2.362
917.821,2.348
918.056,2.390
918.292,2.450
918.527,2.450
918.763,2.392
918.998,2.320
919.234,2.352
919.469,2.445
919.705,2.501
919.940,2.476
920.176,2.420
920.412,2.435
920.648,2.443
920.884,2.427
921.120,2.373
921.356,2.336
921.592,2.313
921.828,2.294
922.065,2.296
922.301,2.339
922.537,2.417
922.774,2.461
923.011,2.428
923.247,2.327
923.484,2.296
923.721,2.331
923.958,2.406
924.195,2.415
924.433,2.396
924.670,2.320
924.908,2.237
925.145,2.210
925.383,2.272
925.621,2.348
925.859,2.385
926.097,2.407
926.335,2.413
926.574,2.433
926.813,2.439
927.051,2.436
927.290,2.412
927.529,2.454
927.769,2.549
928.008,2.620
928.248,2.523
928.487,2.406
928.727,2.343
928.967,2.421
929.208,2.489
929.448,2.497
929.689,2.440
929.930,2.355
930.171,2.281
930.413,2.250
930.654,2.258
930.896,2.229
931.138,2.191
931.380,2.144
931.623,2.182
931.865,2.257
932.108,2.340
932.352,2.399
932.595,2.415
932.839,2.442
933.083,2.420
933.327,2.384
933.571,2.305
933.816,2.305
934.061,2.334
934.307,2.359
934.552,2.303
934.798,2.269
935.045,2.274
935.291,2.315
935.538,2.333
935.785,2.362
936.033,2.405
936.281,2.447
936.529,2.461
936.777,2.448
937.026,2.389
937.275,2.344
937.525,2.288
937.775,2.250
938.025,2.216
938.276,2.193
938.527,2.192
938.778,2.191
939.030,2.181
939.282,2.181
939.535,2.196
939.788,2.259
940.041,2.267
940.295,2.239
940.550,2.230
940.804,2.280
941.059,2.349
941.315,2.333
941.571,2.264
941.828,2.211
942.085,2.203
942.342,2.238
942.600,2.246
942.858,2.250
943.117,2.219
943.377,2.197
943.636,2.160
943.897,2.150
944.158,2.175
944.419,2.241
944.681,2.284
944.944,2.315
945.207,2.334
945.470,2.370
945.734,2.393
945.999,2.443
946.264,2.515
946.530,2.554
946.797,2.534
947.064,2.474
947.331,2.431
947.600,2.359
947.869,2.291
948.138,2.230
948.408,2.206
948.679,2.212
948.950,2.245
949.222,2.243
949.495,2.223
949.768,2.217
950.043,2.286
