Wavelength (nm),Intensity W34.2,,C:/Users/Brend/Desktop/LED Spectras v2/Spectrometer Data (White).sp,,,W34.2,
379.792,2.332,,2018-06-15 15:22:02,,Integration Time,186 ms,
380.000,2.329,,Analyze Light,,Number of Scans to Average,25,
380.209,2.326,,,,Smoothing,1,
380.418,2.342
380.627,2.367
380.837,2.391
381.048,2.403
381.259,2.399
381.471,2.394
381.683,2.400
381.896,2.422
382.110,2.437
382.324,2.458
382.538,2.479
382.753,2.498
382.969,2.488
383.185,2.471
383.402,2.458
383.619,2.472
383.837,2.493
384.055,2.526
384.274,2.550
384.493,2.563
384.712,2.565
384.932,2.567
385.153,2.573
385.374,2.582
385.596,2.592
385.818,2.613
386.040,2.638
386.263,2.663
386.487,2.672
386.710,2.673
386.935,2.659
387.159,2.653
387.385,2.646
387.610,2.646
387.836,2.647
388.063,2.657
388.289,2.668
388.517,2.678
388.744,2.678
388.972,2.693
389.201,2.705
389.430,2.725
389.659,2.736
389.889,2.756
390.119,2.772
390.349,2.785
390.580,2.797
390.811,2.806
391.042,2.808
391.274,2.810
391.507,2.815
391.739,2.818
391.972,2.816
392.205,2.824
392.439,2.846
392.673,2.870
392.907,2.888
393.142,2.906
393.377,2.920
393.612,2.938
393.848,2.943
394.084,2.954
394.320,2.958
394.557,2.974
394.794,2.981
395.031,2.992
395.269,3.003
395.507,3.027
395.745,3.039
395.983,3.050
396.222,3.054
396.461,3.079
396.700,3.111
396.940,3.134
397.180,3.138
397.420,3.123
397.660,3.106
397.901,3.096
398.142,3.103
398.383,3.110
398.625,3.107
398.866,3.114
399.108,3.149
399.351,3.204
399.593,3.224
399.836,3.223
400.079,3.200
400.322,3.188
400.566,3.174
400.809,3.173
401.053,3.184
401.298,3.204
401.542,3.225
401.787,3.247
402.031,3.260
402.277,3.274
402.522,3.278
402.767,3.293
403.013,3.289
403.259,3.295
403.505,3.295
403.752,3.308
403.998,3.314
404.245,3.337
404.492,3.363
404.739,3.388
404.986,3.397
405.234,3.407
405.482,3.410
405.730,3.411
405.978,3.412
406.226,3.416
406.475,3.410
406.723,3.410
406.972,3.425
407.221,3.457
407.470,3.473
407.720,3.485
407.969,3.477
408.219,3.488
408.469,3.497
408.719,3.518
408.969,3.528
409.219,3.543
409.470,3.554
409.720,3.576
409.971,3.589
410.222,3.610
410.473,3.614
410.724,3.617
410.976,3.620
411.227,3.636
411.479,3.649
411.731,3.660
411.983,3.657
412.235,3.662
412.487,3.660
412.740,3.676
412.992,3.689
413.245,3.709
413.497,3.715
413.750,3.719
414.003,3.708
414.257,3.701
414.510,3.697
414.763,3.711
415.017,3.721
415.270,3.728
415.524,3.725
415.778,3.729
416.032,3.731
416.286,3.748
416.540,3.756
416.794,3.769
417.049,3.772
417.303,3.785
417.558,3.796
417.812,3.810
418.067,3.818
418.322,3.829
418.577,3.828
418.832,3.826
419.088,3.814
419.343,3.824
419.598,3.828
419.854,3.848
420.109,3.865
420.365,3.900
420.621,3.922
420.876,3.942
421.132,3.950
421.388,3.960
421.645,3.969
421.901,3.993
422.157,4.020
422.413,4.058
422.670,4.087
422.926,4.116
423.183,4.129
423.439,4.167
423.696,4.208
423.953,4.282
424.210,4.346
424.467,4.396
424.724,4.417
424.981,4.434
425.238,4.470
425.495,4.537
425.753,4.612
426.010,4.698
426.267,4.774
426.525,4.863
426.782,4.940
427.040,5.026
427.298,5.111
427.555,5.220
427.813,5.317
428.071,5.417
428.329,5.507
428.587,5.610
428.845,5.713
429.103,5.834
429.361,5.961
429.619,6.099
429.878,6.237
430.136,6.390
430.394,6.541
430.653,6.718
430.911,6.899
431.170,7.100
431.428,7.284
431.687,7.474
431.946,7.664
432.204,7.873
432.463,8.087
432.722,8.313
432.981,8.538
433.240,8.786
433.499,9.047
433.758,9.336
434.017,9.610
434.276,9.889
434.535,10.156
434.794,10.443
435.053,10.750
435.312,11.088
435.572,11.433
435.831,11.794
436.090,12.165
436.350,12.562
436.609,12.959
436.869,13.360
437.128,13.765
437.388,14.186
437.647,14.618
437.907,15.080
438.166,15.551
438.426,16.037
438.686,16.527
438.946,17.046
439.205,17.581
439.465,18.152
439.725,18.750
439.985,19.370
440.245,19.985
440.505,20.605
440.765,21.233
441.025,21.885
441.285,22.552
441.545,23.266
441.805,24.003
442.065,24.783
442.325,25.573
442.585,26.426
442.846,27.312
443.106,28.264
443.366,29.253
443.626,30.285
443.887,31.353
444.147,32.456
444.407,33.620
444.668,34.843
444.928,36.126
445.189,37.465
445.449,38.864
445.710,40.323
445.970,41.864
446.231,43.477
446.491,45.165
446.752,46.912
447.012,48.726
447.273,50.619
447.534,52.567
447.794,54.549
448.055,56.579
448.316,58.695
448.577,60.902
448.837,63.155
449.098,65.425
449.359,67.678
449.620,69.906
449.881,72.122
450.142,74.313
450.403,76.519
450.664,78.705
450.924,80.825
451.185,82.780
451.446,84.481
451.707,85.916
451.969,87.112
452.230,88.119
452.491,88.998
452.752,89.738
453.013,90.379
453.274,90.912
453.535,91.352
453.796,91.687
454.058,91.935
454.319,92.110
454.580,92.216
454.841,92.261
455.103,92.249
455.364,92.188
455.625,92.075
455.887,91.909
456.148,91.688
456.409,91.404
456.671,91.038
456.932,90.591
457.194,90.057
457.455,89.443
457.716,88.740
457.978,87.942
458.239,87.036
458.501,85.964
458.763,84.677
459.024,83.148
459.286,81.413
459.547,79.569
459.809,77.671
460.071,75.770
460.332,73.905
460.594,72.097
460.856,70.376
461.117,68.686
461.379,67.079
461.641,65.539
461.903,64.093
462.164,62.712
462.426,61.410
462.688,60.184
462.950,59.038
463.212,57.961
463.474,56.949
463.736,55.992
463.998,55.114
464.260,54.312
464.522,53.578
464.784,52.881
465.046,52.228
465.308,51.631
465.570,51.080
465.832,50.557
466.094,50.056
466.356,49.556
466.618,49.056
466.880,48.533
467.142,48.014
467.405,47.511
467.667,47.030
467.929,46.546
468.191,46.044
468.454,45.519
468.716,44.986
468.978,44.421
469.241,43.829
469.503,43.203
469.765,42.589
470.028,41.982
470.290,41.358
470.552,40.714
470.815,40.063
471.077,39.411
471.340,38.755
471.602,38.066
471.865,37.380
472.128,36.671
472.390,35.982
472.653,35.294
472.915,34.619
473.178,33.943
473.441,33.266
473.703,32.595
473.966,31.925
474.229,31.266
474.492,30.618
474.755,29.980
475.017,29.382
475.280,28.798
475.543,28.244
475.806,27.679
476.069,27.126
476.332,26.594
476.595,26.094
476.858,25.612
477.121,25.148
477.384,24.712
477.647,24.333
477.910,23.980
478.173,23.638
478.436,23.296
478.699,22.979
478.962,22.675
479.226,22.405
479.489,22.140
479.752,21.903
480.015,21.661
480.279,21.444
480.542,21.226
480.805,21.025
481.069,20.807
481.332,20.602
481.595,20.416
481.859,20.282
482.122,20.157
482.386,20.026
482.649,19.880
482.913,19.734
483.177,19.581
483.440,19.427
483.704,19.286
483.967,19.187
484.231,19.108
484.495,19.035
484.759,18.938
485.022,18.815
485.286,18.681
485.550,18.549
485.814,18.414
486.078,18.286
486.342,18.168
486.606,18.088
486.869,18.012
487.133,17.946
487.397,17.882
487.662,17.823
487.926,17.750
488.190,17.672
488.454,17.581
488.718,17.511
488.982,17.432
489.246,17.378
489.511,17.310
489.775,17.254
490.039,17.192
490.304,17.140
490.568,17.088
490.832,17.057
491.097,17.046
491.361,17.053
491.626,17.057
491.890,17.062
492.155,17.066
492.419,17.090
492.684,17.101
492.949,17.126
493.213,17.150
493.478,17.205
493.743,17.257
494.008,17.303
494.272,17.348
494.537,17.419
494.802,17.507
495.067,17.612
495.332,17.716
495.597,17.831
495.862,17.927
496.127,18.031
496.392,18.122
496.657,18.217
496.922,18.307
497.187,18.420
497.452,18.562
497.718,18.740
497.983,18.901
498.248,19.046
498.513,19.164
498.779,19.310
499.044,19.466
499.310,19.607
499.575,19.727
499.841,19.866
500.106,20.018
500.372,20.170
500.637,20.313
500.903,20.484
501.168,20.658
501.434,20.828
501.700,20.964
501.966,21.110
502.231,21.247
502.497,21.399
502.763,21.529
503.029,21.664
503.295,21.794
503.561,21.952
503.827,22.118
504.093,22.291
504.359,22.450
504.625,22.613
504.891,22.766
505.157,22.929
505.423,23.062
505.690,23.201
505.956,23.346
506.222,23.528
506.489,23.722
506.755,23.913
507.021,24.079
507.288,24.238
507.554,24.378
507.821,24.534
508.087,24.690
508.354,24.864
508.621,25.018
508.887,25.164
509.154,25.302
509.421,25.453
509.687,25.596
509.954,25.751
510.221,25.904
510.488,26.082
510.755,26.249
511.022,26.417
511.289,26.547
511.556,26.675
511.823,26.799
512.090,26.950
512.357,27.083
512.624,27.228
512.891,27.362
513.159,27.496
513.426,27.608
513.693,27.716
513.960,27.834
514.228,27.975
514.495,28.113
514.763,28.244
515.030,28.366
515.298,28.488
515.565,28.624
515.833,28.751
516.100,28.863
516.368,28.947
516.636,29.024
516.904,29.130
517.171,29.240
517.439,29.367
517.707,29.477
517.975,29.606
518.243,29.727
518.511,29.841
518.779,29.921
519.047,30.015
519.315,30.115
519.583,30.220
519.851,30.299
520.119,30.380
520.387,30.463
520.656,30.557
520.924,30.648
521.192,30.741
521.461,30.818
521.729,30.896
521.997,30.974
522.266,31.059
522.534,31.133
522.803,31.215
523.071,31.292
523.340,31.382
523.609,31.460
523.877,31.538
524.146,31.613
524.415,31.699
524.684,31.796
524.952,31.889
525.221,31.977
525.490,32.068
525.759,32.135
526.028,32.184
526.297,32.204
526.566,32.244
526.835,32.296
527.104,32.364
527.373,32.435
527.642,32.511
527.912,32.571
528.181,32.621
528.450,32.656
528.719,32.696
528.989,32.735
529.258,32.789
529.528,32.833
529.797,32.874
530.067,32.916
530.336,32.952
530.606,32.979
530.875,32.983
531.145,33.001
531.414,33.043
531.684,33.096
531.954,33.142
532.224,33.169
532.493,33.179
532.763,33.187
533.033,33.201
533.303,33.225
533.573,33.247
533.843,33.249
534.113,33.260
534.383,33.277
534.653,33.318
534.923,33.367
535.193,33.412
535.463,33.445
535.733,33.464
536.004,33.486
536.274,33.519
536.544,33.549
536.814,33.572
537.085,33.608
537.355,33.665
537.626,33.723
537.896,33.753
538.166,33.768
538.437,33.790
538.707,33.833
538.978,33.892
539.249,33.967
539.519,34.041
539.790,34.086
540.061,34.111
540.331,34.126
540.602,34.153
540.873,34.173
541.144,34.196
541.414,34.210
541.685,34.240
541.956,34.260
542.227,34.287
542.498,34.305
542.769,34.338
543.040,34.390
543.311,34.463
543.582,34.544
543.853,34.612
544.124,34.654
544.396,34.682
544.667,34.690
544.938,34.690
545.209,34.628
545.480,34.572
545.752,34.518
546.023,34.511
546.294,34.480
546.566,34.456
546.837,34.439
547.109,34.448
547.380,34.444
547.652,34.428
547.923,34.407
548.195,34.401
548.466,34.399
548.738,34.402
549.009,34.390
549.281,34.365
549.553,34.329
549.824,34.297
550.096,34.288
550.368,34.292
550.640,34.302
550.911,34.317
551.183,34.330
551.455,34.344
551.727,34.334
551.999,34.308
552.271,34.272
552.543,34.270
552.815,34.274
553.087,34.287
553.359,34.267
553.631,34.232
553.903,34.175
554.175,34.128
554.447,34.086
554.719,34.062
554.991,34.030
555.263,34.013
555.535,33.985
555.808,33.959
556.080,33.918
556.352,33.876
556.624,33.830
556.897,33.771
557.169,33.703
557.441,33.635
557.714,33.573
557.986,33.530
558.258,33.492
558.531,33.495
558.803,33.497
559.076,33.490
559.348,33.437
559.621,33.373
559.893,33.326
560.166,33.292
560.438,33.269
560.711,33.248
560.983,33.242
561.256,33.247
561.528,33.241
561.801,33.225
562.074,33.183
562.346,33.137
562.619,33.084
562.892,33.027
563.164,32.968
563.437,32.927
563.710,32.895
563.983,32.870
564.255,32.836
564.528,32.839
564.801,32.868
565.074,32.894
565.346,32.866
565.619,32.811
565.892,32.752
566.165,32.693
566.438,32.605
566.711,32.509
566.984,32.412
567.257,32.346
567.529,32.295
567.802,32.283
568.075,32.266
568.348,32.234
568.621,32.176
568.894,32.112
569.167,32.037
569.440,31.954
569.713,31.840
569.986,31.732
570.259,31.613
570.532,31.521
570.805,31.435
571.078,31.380
571.351,31.340
571.625,31.310
571.898,31.245
572.171,31.151
572.444,31.046
572.717,30.953
572.990,30.867
573.263,30.768
573.536,30.657
573.809,30.538
574.083,30.439
574.356,30.387
574.629,30.371
574.902,30.347
575.175,30.283
575.448,30.185
575.721,30.071
575.995,29.975
576.268,29.888
576.541,29.840
576.814,29.803
577.087,29.789
577.361,29.769
577.634,29.734
577.907,29.663
578.180,29.561
578.453,29.444
578.727,29.340
579.000,29.249
579.273,29.181
579.546,29.132
579.820,29.102
580.093,29.072
580.366,29.032
580.639,28.986
580.913,28.945
581.186,28.886
581.459,28.815
581.732,28.717
582.005,28.629
582.279,28.525
582.552,28.428
582.825,28.330
583.098,28.258
583.372,28.210
583.645,28.189
583.918,28.179
584.191,28.176
584.464,28.149
584.738,28.100
585.011,28.012
585.284,27.897
585.557,27.772
585.831,27.666
586.104,27.588
586.377,27.546
586.650,27.510
586.923,27.485
587.196,27.449
587.470,27.406
587.743,27.349
588.016,27.282
588.289,27.202
588.562,27.112
588.835,26.999
589.109,26.882
589.382,26.781
589.655,26.715
589.928,26.668
590.201,26.625
590.474,26.579
590.747,26.534
591.020,26.476
591.293,26.399
591.567,26.297
591.840,26.180
592.113,26.053
592.386,25.926
592.659,25.797
592.932,25.691
593.205,25.613
593.478,25.560
593.751,25.509
594.024,25.467
594.297,25.410
594.570,25.334
594.843,25.236
595.116,25.133
595.389,25.035
595.662,24.938
595.934,24.843
596.207,24.760
596.480,24.686
596.753,24.629
597.026,24.562
597.299,24.493
597.572,24.404
597.844,24.302
598.117,24.172
598.390,24.040
598.663,23.895
598.936,23.753
599.208,23.606
599.481,23.490
599.754,23.403
600.026,23.324
600.299,23.245
600.572,23.166
600.844,23.073
601.117,22.955
601.390,22.822
601.662,22.701
601.935,22.576
602.207,22.456
602.480,22.338
602.752,22.233
603.025,22.108
603.297,21.986
603.570,21.885
603.842,21.824
604.115,21.749
604.387,21.665
604.660,21.544
604.932,21.429
605.204,21.304
605.477,21.194
605.749,21.076
606.021,20.963
606.294,20.849
606.566,20.737
606.838,20.628
607.110,20.532
607.383,20.456
607.655,20.395
607.927,20.329
608.199,20.274
608.471,20.193
608.743,20.087
609.015,19.941
609.287,19.803
609.559,19.676
609.831,19.569
610.103,19.455
610.375,19.342
610.647,19.214
610.919,19.080
611.191,18.944
611.463,18.826
611.735,18.703
612.007,18.578
612.278,18.440
612.550,18.315
612.822,18.189
613.094,18.070
613.365,17.937
613.637,17.821
613.909,17.700
614.180,17.594
614.452,17.468
614.723,17.340
614.995,17.214
615.266,17.118
615.538,17.042
615.809,16.961
616.081,16.845
616.352,16.716
616.623,16.582
616.895,16.462
617.166,16.329
617.437,16.210
617.709,16.100
617.980,16.024
618.251,15.951
618.522,15.891
618.793,15.828
619.065,15.792
619.336,15.717
619.607,15.611
619.878,15.476
620.149,15.368
620.420,15.252
620.691,15.128
620.962,15.011
621.232,14.934
621.503,14.848
621.774,14.767
622.045,14.680
622.316,14.629
622.586,14.575
622.857,14.531
623.128,14.458
623.398,14.382
623.669,14.278
623.940,14.167
624.210,14.041
624.481,13.945
624.751,13.858
625.021,13.779
625.292,13.687
625.562,13.627
625.833,13.565
626.103,13.509
626.373,13.430
626.643,13.358
626.914,13.272
627.184,13.191
627.454,13.111
627.724,13.040
627.994,12.965
628.264,12.887
628.534,12.805
628.804,12.733
629.074,12.680
629.344,12.631
629.614,12.580
629.884,12.526
630.154,12.470
630.424,12.403
630.693,12.325
630.963,12.243
631.233,12.157
631.502,12.077
631.772,12.012
632.041,11.954
632.311,11.887
632.581,11.810
632.850,11.725
633.119,11.642
633.389,11.561
633.658,11.504
633.928,11.470
634.197,11.447
634.466,11.422
634.735,11.388
635.004,11.332
635.274,11.263
635.543,11.186
635.812,11.120
636.081,11.058
636.350,11.004
636.619,10.945
636.888,10.883
637.157,10.817
637.426,10.763
637.694,10.712
637.963,10.660
638.232,10.603
638.501,10.544
638.769,10.487
639.038,10.431
639.307,10.379
639.575,10.324
639.844,10.249
640.112,10.174
640.381,10.095
640.649,10.036
640.917,9.990
641.186,9.946
641.454,9.901
641.722,9.844
641.991,9.789
642.259,9.720
642.527,9.646
642.795,9.586
643.063,9.523
643.331,9.473
643.599,9.424
643.867,9.402
644.135,9.369
644.403,9.339
644.671,9.288
644.939,9.248
645.206,9.196
645.474,9.149
645.742,9.085
646.009,9.011
646.277,8.939
646.545,8.878
646.812,8.844
647.080,8.813
647.347,8.773
647.615,8.714
647.882,8.638
648.149,8.564
648.417,8.494
648.684,8.439
648.951,8.397
649.219,8.363
649.486,8.322
649.753,8.274
650.020,8.213
650.287,8.151
650.554,8.078
650.821,8.006
651.088,7.931
651.355,7.887
651.622,7.837
651.889,7.800
652.155,7.747
652.422,7.708
652.689,7.671
652.956,7.630
653.222,7.589
653.489,7.557
653.755,7.511
654.022,7.438
654.288,7.340
654.555,7.254
654.821,7.194
655.088,7.152
655.354,7.116
655.620,7.083
655.887,7.042
656.153,6.998
656.419,6.944
656.685,6.891
656.951,6.840
657.217,6.788
657.483,6.738
657.749,6.687
658.015,6.647
658.281,6.608
658.547,6.553
658.813,6.489
659.079,6.421
659.345,6.358
659.610,6.299
659.876,6.242
660.142,6.200
660.407,6.161
660.673,6.128
660.939,6.102
661.204,6.066
661.470,6.029
661.735,5.985
662.000,5.952
662.266,5.910
662.531,5.859
662.796,5.805
663.062,5.754
663.327,5.705
663.592,5.666
663.857,5.632
664.122,5.599
664.388,5.560
664.653,5.525
664.918,5.498
665.183,5.471
665.448,5.447
665.712,5.420
665.977,5.393
666.242,5.361
666.507,5.302
666.772,5.240
667.037,5.174
667.301,5.139
667.566,5.100
667.831,5.073
668.095,5.039
668.360,5.014
668.624,4.971
668.889,4.946
669.153,4.915
669.418,4.894
669.682,4.862
669.946,4.833
670.211,4.811
670.475,4.793
670.739,4.772
671.004,4.757
671.268,4.752
671.532,4.755
671.796,4.696
672.060,4.627
672.324,4.555
672.588,4.539
672.852,4.526
673.116,4.540
673.380,4.555
673.644,4.503
673.908,4.413
674.172,4.319
674.436,4.291
674.700,4.274
674.963,4.252
675.227,4.224
675.491,4.179
675.754,4.139
676.018,4.099
676.282,4.076
676.545,4.044
676.809,4.011
677.072,3.973
677.336,3.939
677.599,3.913
677.863,3.885
678.126,3.866
678.389,3.860
678.653,3.861
678.916,3.844
679.179,3.803
679.442,3.762
679.706,3.737
679.969,3.716
680.232,3.693
680.495,3.677
680.758,3.666
681.021,3.641
681.284,3.600
681.547,3.562
681.810,3.544
682.073,3.544
682.336,3.545
682.599,3.533
682.862,3.513
683.125,3.495
683.388,3.481
683.651,3.463
683.913,3.445
684.176,3.414
684.439,3.376
684.702,3.330
684.964,3.294
685.227,3.269
685.490,3.254
685.752,3.252
686.015,3.245
686.277,3.231
686.540,3.199
686.802,3.162
687.065,3.134
687.327,3.121
687.590,3.111
687.852,3.092
688.115,3.058
688.377,3.032
688.639,3.013
688.902,2.997
689.164,2.982
689.426,2.978
689.689,2.976
689.951,2.962
690.213,2.938
690.475,2.915
690.737,2.896
691.000,2.875
691.262,2.857
691.524,2.852
691.786,2.856
692.048,2.859
692.310,2.841
692.572,2.805
692.834,2.768
693.096,2.746
693.358,2.744
693.620,2.752
693.882,2.758
694.144,2.750
694.406,2.727
694.668,2.704
694.930,2.678
695.192,2.656
695.453,2.640
695.715,2.636
695.977,2.626
696.239,2.605
696.501,2.587
696.762,2.583
697.024,2.575
697.286,2.552
697.548,2.531
697.809,2.516
698.071,2.504
698.333,2.490
698.594,2.477
698.856,2.471
699.118,2.465
699.379,2.456
699.641,2.449
699.902,2.445
700.164,2.436
700.426,2.418
700.687,2.394
700.949,2.381
701.210,2.368
701.472,2.357
701.733,2.338
701.995,2.326
702.256,2.314
702.518,2.305
702.779,2.293
703.041,2.299
703.302,2.312
703.563,2.311
703.825,2.290
704.086,2.265
704.348,2.251
704.609,2.247
704.871,2.253
705.132,2.265
705.393,2.259
705.655,2.242
705.916,2.226
706.177,2.223
706.439,2.221
706.700,2.213
706.961,2.199
707.223,2.185
707.484,2.157
707.745,2.132
708.007,2.106
708.268,2.084
708.529,2.063
708.790,2.038
709.052,2.020
709.313,2.014
709.574,2.012
709.835,2.009
710.097,1.992
710.358,1.963
710.619,1.935
710.881,1.909
711.142,1.894
711.403,1.882
711.664,1.873
711.926,1.857
712.187,1.851
712.448,1.855
712.709,1.868
712.970,1.877
713.232,1.879
713.493,1.878
713.754,1.873
714.015,1.868
714.277,1.870
714.538,1.878
714.799,1.891
715.060,1.892
715.322,1.882
715.583,1.863
715.844,1.845
716.105,1.827
716.367,1.811
716.628,1.804
716.889,1.799
717.150,1.788
717.411,1.767
717.673,1.757
717.934,1.754
718.195,1.751
718.457,1.735
718.718,1.713
718.979,1.703
719.240,1.704
719.502,1.715
719.763,1.721
720.024,1.725
720.286,1.725
720.547,1.716
720.808,1.703
721.069,1.693
721.331,1.695
721.592,1.706
721.853,1.710
722.115,1.712
722.376,1.710
722.638,1.702
722.899,1.692
723.160,1.674
723.422,1.656
723.683,1.640
723.944,1.638
724.206,1.640
724.467,1.643
724.729,1.641
724.990,1.649
725.252,1.659
725.513,1.653
725.775,1.634
726.036,1.613
726.298,1.607
726.559,1.615
726.821,1.620
727.082,1.622
727.344,1.617
727.605,1.618
727.867,1.615
728.128,1.621
728.390,1.622
728.652,1.632
728.913,1.646
729.175,1.655
729.436,1.654
729.698,1.651
729.960,1.645
730.221,1.634
730.483,1.611
730.745,1.602
731.007,1.601
731.268,1.603
731.530,1.603
731.792,1.604
732.054,1.607
732.315,1.610
732.577,1.616
732.839,1.613
733.101,1.603
733.363,1.593
733.625,1.591
733.887,1.597
734.149,1.598
734.411,1.605
734.673,1.610
734.935,1.614
735.197,1.610
735.459,1.612
735.721,1.616
735.983,1.612
736.245,1.592
736.507,1.586
736.769,1.598
737.031,1.615
737.293,1.609
737.555,1.589
737.818,1.569
738.080,1.561
738.342,1.564
738.604,1.570
738.867,1.576
739.129,1.575
739.391,1.572
739.654,1.570
739.916,1.571
740.178,1.578
740.441,1.589
740.703,1.596
740.966,1.590
741.228,1.582
741.491,1.576
741.753,1.580
742.016,1.581
742.278,1.583
742.541,1.586
742.804,1.589
743.066,1.595
743.329,1.597
743.592,1.590
743.854,1.589
744.117,1.592
744.380,1.598
744.643,1.592
744.905,1.582
745.168,1.576
745.431,1.570
745.694,1.565
745.957,1.557
746.220,1.551
746.483,1.546
746.746,1.548
747.009,1.564
747.272,1.595
747.535,1.620
747.798,1.627
748.061,1.608
748.324,1.578
748.588,1.558
748.851,1.553
749.114,1.556
749.377,1.563
749.641,1.564
749.904,1.575
750.167,1.587
750.431,1.598
750.694,1.606
750.958,1.606
751.221,1.598
751.485,1.570
751.748,1.555
752.012,1.558
752.275,1.586
752.539,1.596
752.803,1.589
753.066,1.570
753.330,1.556
753.594,1.549
753.857,1.545
754.121,1.554
754.385,1.566
754.649,1.576
754.913,1.577
755.177,1.580
755.441,1.578
755.705,1.566
755.969,1.549
756.233,1.549
756.497,1.559
756.761,1.563
757.025,1.552
757.289,1.537
757.553,1.531
757.818,1.537
758.082,1.552
758.346,1.563
758.610,1.566
758.875,1.561
759.139,1.556
759.404,1.547
759.668,1.538
759.932,1.538
760.197,1.549
760.462,1.561
760.726,1.562
760.991,1.558
761.255,1.557
761.520,1.556
761.785,1.550
762.049,1.531
762.314,1.515
762.579,1.515
762.844,1.531
763.109,1.546
763.374,1.546
763.639,1.539
763.903,1.525
764.168,1.515
764.433,1.510
764.699,1.526
764.964,1.540
765.229,1.538
765.494,1.520
765.759,1.507
766.024,1.502
766.290,1.511
766.555,1.524
766.820,1.536
767.086,1.542
767.351,1.539
767.616,1.534
767.882,1.528
768.147,1.524
768.413,1.516
768.678,1.504
768.944,1.505
769.209,1.517
769.475,1.532
769.741,1.544
770.006,1.554
770.272,1.562
770.538,1.559
770.804,1.546
771.070,1.536
771.335,1.544
771.601,1.563
771.867,1.572
772.133,1.563
772.399,1.548
772.665,1.524
772.931,1.515
773.197,1.521
773.464,1.542
773.730,1.559
773.996,1.563
774.262,1.565
774.528,1.561
774.795,1.563
775.061,1.568
775.327,1.571
775.594,1.564
775.860,1.541
776.126,1.508
776.393,1.481
776.659,1.469
776.926,1.469
777.193,1.478
777.459,1.488
777.726,1.487
777.992,1.481
778.259,1.468
778.526,1.471
778.793,1.478
779.059,1.492
779.326,1.506
779.593,1.513
779.860,1.523
780.127,1.521
780.394,1.516
780.661,1.509
780.928,1.504
781.195,1.494
781.462,1.481
781.729,1.476
781.996,1.480
782.263,1.484
782.530,1.498
782.797,1.512
783.064,1.511
783.332,1.500
783.599,1.485
783.866,1.482
784.134,1.475
784.401,1.472
784.668,1.473
784.936,1.477
785.203,1.473
785.470,1.460
785.738,1.452
786.005,1.447
786.273,1.444
786.541,1.439
786.808,1.443
787.076,1.453
787.343,1.468
787.611,1.478
787.879,1.490
788.146,1.488
788.414,1.493
788.682,1.484
788.950,1.482
789.217,1.481
789.485,1.499
789.753,1.511
790.021,1.500
790.289,1.473
790.557,1.448
790.825,1.442
791.093,1.452
791.361,1.473
791.629,1.495
791.897,1.509
792.165,1.507
792.433,1.494
792.701,1.470
792.969,1.449
793.237,1.437
793.505,1.448
793.773,1.463
794.042,1.465
794.310,1.454
794.578,1.446
794.846,1.447
795.115,1.448
795.383,1.451
795.651,1.460
795.920,1.467
796.188,1.468
796.456,1.473
796.725,1.477
796.993,1.491
797.261,1.497
797.530,1.499
797.798,1.490
798.067,1.491
798.335,1.502
798.604,1.502
798.872,1.482
799.141,1.458
799.409,1.449
799.678,1.452
799.946,1.460
800.215,1.465
800.483,1.465
800.752,1.465
801.020,1.461
801.289,1.458
801.558,1.455
801.826,1.455
802.095,1.450
802.363,1.449
802.632,1.451
802.901,1.461
803.169,1.467
803.438,1.466
803.707,1.452
803.976,1.435
804.244,1.431
804.513,1.439
804.782,1.439
805.050,1.434
805.319,1.434
805.588,1.447
805.857,1.463
806.125,1.466
806.394,1.462
806.663,1.446
806.931,1.434
807.200,1.426
807.469,1.427
807.738,1.427
808.006,1.429
808.275,1.440
808.544,1.463
808.813,1.481
809.082,1.480
809.350,1.466
809.619,1.451
809.888,1.439
810.157,1.430
810.425,1.426
810.694,1.430
810.963,1.440
811.232,1.441
811.500,1.434
811.769,1.420
812.038,1.421
812.306,1.433
812.575,1.452
812.844,1.462
813.113,1.465
813.381,1.455
813.650,1.453
813.919,1.460
814.187,1.472
814.456,1.480
814.725,1.485
814.993,1.482
815.262,1.476
815.531,1.467
815.799,1.466
816.068,1.457
816.336,1.440
816.605,1.434
816.873,1.439
817.142,1.458
817.411,1.470
817.679,1.477
817.948,1.487
818.216,1.509
818.485,1.556
818.753,1.593
819.021,1.565
819.290,1.501
819.558,1.446
819.827,1.447
820.095,1.461
820.363,1.465
820.632,1.461
820.900,1.456
821.168,1.460
821.437,1.468
821.705,1.474
821.973,1.477
822.241,1.476
822.509,1.479
822.777,1.473
823.046,1.470
823.314,1.473
823.582,1.478
823.850,1.481
824.118,1.481
824.386,1.476
824.654,1.454
824.922,1.428
825.190,1.411
825.457,1.422
825.725,1.437
825.993,1.437
826.261,1.430
826.529,1.429
826.796,1.436
827.064,1.438
827.332,1.439
827.599,1.446
827.867,1.463
828.134,1.469
828.402,1.457
828.669,1.439
828.937,1.430
829.204,1.448
829.471,1.480
829.739,1.501
830.006,1.503
830.273,1.488
830.540,1.470
830.807,1.451
831.075,1.443
831.342,1.449
831.609,1.453
831.876,1.458
832.142,1.459
832.409,1.464
832.676,1.456
832.943,1.441
833.210,1.429
833.476,1.426
833.743,1.433
834.010,1.440
834.276,1.436
834.543,1.431
834.809,1.435
835.076,1.445
835.342,1.450
835.608,1.462
835.874,1.473
836.141,1.473
836.407,1.462
836.673,1.446
836.939,1.441
837.205,1.437
837.471,1.437
837.737,1.441
838.002,1.441
838.268,1.440
838.534,1.442
838.799,1.444
839.065,1.456
839.330,1.462
839.596,1.467
839.861,1.467
840.127,1.472
840.392,1.477
840.657,1.479
840.922,1.487
841.187,1.496
841.452,1.499
841.717,1.497
841.982,1.483
842.247,1.464
842.511,1.447
842.776,1.444
843.041,1.448
843.305,1.444
843.570,1.440
843.834,1.438
844.098,1.438
844.362,1.437
844.627,1.432
844.891,1.431
845.155,1.435
845.419,1.446
845.682,1.456
845.946,1.461
846.210,1.467
846.474,1.467
846.737,1.471
847.001,1.463
847.264,1.447
847.527,1.435
847.790,1.432
848.054,1.434
848.317,1.426
848.580,1.418
848.843,1.422
849.105,1.443
849.368,1.472
849.631,1.487
849.893,1.493
850.156,1.500
850.418,1.503
850.680,1.483
850.943,1.459
851.205,1.454
851.467,1.458
851.729,1.453
851.991,1.450
852.252,1.456
852.514,1.469
852.776,1.475
853.037,1.483
853.298,1.481
853.560,1.470
853.821,1.448
854.082,1.429
854.343,1.429
854.604,1.446
854.865,1.478
855.126,1.499
855.386,1.513
855.647,1.509
855.907,1.493
856.168,1.468
856.428,1.449
856.688,1.441
856.948,1.426
857.208,1.412
857.468,1.411
857.727,1.426
857.987,1.439
858.247,1.447
858.506,1.456
858.765,1.461
859.024,1.448
859.284,1.432
859.543,1.420
859.801,1.418
860.060,1.421
860.319,1.434
860.577,1.453
860.836,1.466
861.094,1.473
861.352,1.470
861.611,1.458
861.869,1.444
862.127,1.438
862.384,1.445
862.642,1.453
862.900,1.467
863.157,1.472
863.414,1.464
863.672,1.444
863.929,1.421
864.186,1.414
864.443,1.421
864.699,1.431
864.956,1.439
865.212,1.431
865.469,1.428
865.725,1.436
865.981,1.452
866.237,1.459
866.493,1.457
866.749,1.442
867.005,1.433
867.260,1.421
867.516,1.418
867.771,1.413
868.026,1.415
868.282,1.426
868.536,1.432
868.791,1.430
869.046,1.418
869.301,1.412
869.555,1.418
869.809,1.436
870.064,1.451
870.318,1.465
870.572,1.471
870.826,1.455
871.079,1.434
871.333,1.417
871.586,1.422
871.840,1.425
872.093,1.426
872.346,1.434
872.599,1.456
872.852,1.484
873.105,1.501
873.357,1.495
873.610,1.474
873.862,1.462
874.114,1.462
874.366,1.469
874.618,1.464
874.870,1.443
875.121,1.420
875.373,1.412
875.624,1.421
875.876,1.429
876.127,1.430
876.378,1.427
876.629,1.426
876.879,1.431
877.130,1.437
877.381,1.435
877.631,1.422
877.881,1.416
878.131,1.426
878.381,1.449
878.631,1.477
878.881,1.488
879.130,1.488
879.380,1.473
879.629,1.460
879.878,1.444
880.127,1.434
880.376,1.437
880.625,1.451
880.873,1.468
881.122,1.476
881.370,1.475
881.618,1.462
881.866,1.448
882.114,1.436
882.362,1.432
882.610,1.437
882.857,1.442
883.105,1.446
883.352,1.437
883.599,1.426
883.846,1.418
884.093,1.417
884.340,1.425
884.586,1.436
884.833,1.447
885.079,1.448
885.325,1.439
885.571,1.434
885.817,1.432
886.063,1.442
886.309,1.451
886.554,1.466
886.800,1.475
887.045,1.480
887.290,1.464
887.535,1.441
887.780,1.429
888.025,1.436
888.270,1.457
888.514,1.478
888.758,1.481
889.003,1.469
889.247,1.441
889.491,1.435
889.735,1.445
889.978,1.467
890.222,1.471
890.465,1.466
890.709,1.457
890.952,1.445
891.195,1.432
891.438,1.423
891.681,1.415
891.923,1.418
892.166,1.426
892.408,1.435
892.651,1.429
892.893,1.418
893.135,1.411
893.377,1.416
893.619,1.425
893.861,1.434
894.102,1.442
894.344,1.461
894.585,1.488
894.826,1.505
895.067,1.490
895.308,1.465
895.549,1.439
895.790,1.428
896.031,1.418
896.271,1.426
896.512,1.445
896.752,1.462
896.992,1.461
897.232,1.446
897.472,1.436
897.712,1.447
897.952,1.470
898.191,1.478
898.431,1.471
898.670,1.472
898.910,1.486
899.149,1.506
899.388,1.515
899.627,1.514
899.866,1.499
900.105,1.474
900.343,1.458
900.582,1.454
900.820,1.461
901.059,1.480
901.297,1.492
901.535,1.479
901.773,1.448
902.011,1.418
902.249,1.402
902.487,1.400
902.725,1.408
902.963,1.426
903.200,1.432
903.438,1.431
903.675,1.429
903.912,1.435
904.150,1.449
904.387,1.454
904.624,1.444
904.861,1.425
905.098,1.413
905.334,1.418
905.571,1.418
905.808,1.418
906.045,1.426
906.281,1.439
906.518,1.446
906.754,1.453
906.990,1.456
907.227,1.453
907.463,1.435
907.699,1.424
907.935,1.429
908.171,1.444
908.407,1.447
908.643,1.443
908.879,1.439
909.115,1.450
909.350,1.460
909.586,1.466
909.822,1.468
910.057,1.483
910.293,1.517
910.528,1.539
910.764,1.535
910.999,1.519
911.235,1.498
911.470,1.494
911.706,1.482
911.941,1.478
912.176,1.467
912.412,1.454
912.647,1.451
912.882,1.458
913.117,1.464
913.352,1.461
913.588,1.449
913.823,1.442
914.058,1.435
914.293,1.430
914.528,1.419
914.763,1.413
914.999,1.410
915.234,1.413
915.469,1.420
915.704,1.422
915.939,1.420
916.174,1.416
916.409,1.423
916.645,1.442
916.880,1.459
917.115,1.469
917.350,1.461
917.586,1.453
917.821,1.451
918.056,1.462
918.292,1.472
918.527,1.469
918.763,1.453
918.998,1.440
919.234,1.449
919.469,1.471
919.705,1.483
919.940,1.475
920.176,1.462
920.412,1.464
920.648,1.467
920.884,1.465
921.120,1.454
921.356,1.447
921.592,1.440
921.828,1.437
922.065,1.443
922.301,1.462
922.537,1.487
922.774,1.496
923.011,1.479
923.247,1.449
923.484,1.439
923.721,1.449
923.958,1.464
924.195,1.465
924.433,1.461
924.670,1.443
924.908,1.426
925.145,1.420
925.383,1.435
925.621,1.452
925.859,1.463
926.097,1.470
926.335,1.470
926.574,1.474
926.813,1.477
927.051,1.479
927.290,1.477
927.529,1.485
927.769,1.509
928.008,1.514
928.248,1.487
928.487,1.455
928.727,1.446
928.967,1.467
929.208,1.482
929.448,1.485
929.689,1.474
929.930,1.458
930.171,1.440
930.413,1.430
930.654,1.430
930.896,1.424
931.138,1.416
931.380,1.407
931.623,1.416
931.865,1.434
932.108,1.452
932.352,1.461
932.595,1.460
932.839,1.463
933.083,1.458
933.327,1.451
933.571,1.437
933.816,1.439
934.061,1.446
934.307,1.451
934.552,1.440
934.798,1.431
935.045,1.432
935.291,1.441
935.538,1.450
935.785,1.458
936.033,1.468
936.281,1.479
936.529,1.481
936.777,1.473
937.026,1.455
937.275,1.442
937.525,1.432
937.775,1.426
938.025,1.420
938.276,1.415
938.527,1.413
938.778,1.410
939.030,1.409
939.282,1.412
939.535,1.420
939.788,1.433
940.041,1.433
940.295,1.427
940.550,1.428
940.804,1.443
941.059,1.458
941.315,1.454
941.571,1.436
941.828,1.423
942.085,1.421
942.342,1.427
942.600,1.425
942.858,1.421
943.117,1.411
943.377,1.408
943.636,1.405
943.897,1.410
944.158,1.418
944.419,1.429
944.681,1.435
944.944,1.439
945.207,1.443
945.470,1.450
945.734,1.459
945.999,1.477
946.264,1.499
946.530,1.508
946.797,1.501
947.064,1.484
947.331,1.470
947.600,1.455
947.869,1.440
948.138,1.426
948.408,1.418
948.679,1.420
948.950,1.429
949.222,1.427
949.495,1.420
949.768,1.420
950.043,1.436
