Wavelength (nm),Intensity W29.2,,C:/Users/Brend/Desktop/LED Spectras v2/Spectrometer Data (White).sp,,,W29.2,
379.792,2.519,,2018-06-15 14:38:17,,Integration Time,244 ms,
380.000,2.510,,Analyze Light,,Number of Scans to Average,25,
380.209,2.503,,,,Smoothing,1,
380.418,2.525
380.627,2.560
380.837,2.592
381.048,2.607
381.259,2.604
381.471,2.602
381.683,2.609
381.896,2.631
382.110,2.641
382.324,2.662
382.538,2.691
382.753,2.721
382.969,2.710
383.185,2.685
383.402,2.663
383.619,2.673
383.837,2.692
384.055,2.729
384.274,2.760
384.493,2.783
384.712,2.791
384.932,2.799
385.153,2.809
385.374,2.825
385.596,2.838
385.818,2.865
386.040,2.896
386.263,2.927
386.487,2.940
386.710,2.941
386.935,2.925
387.159,2.917
387.385,2.905
387.610,2.904
387.836,2.905
388.063,2.917
388.289,2.929
388.517,2.940
388.744,2.941
388.972,2.963
389.201,2.975
389.430,2.996
389.659,3.010
389.889,3.038
390.119,3.059
390.349,3.076
390.580,3.095
390.811,3.110
391.042,3.116
391.274,3.121
391.507,3.128
391.739,3.133
391.972,3.132
392.205,3.148
392.439,3.171
392.673,3.196
392.907,3.209
393.142,3.226
393.377,3.238
393.612,3.260
393.848,3.270
394.084,3.284
394.320,3.287
394.557,3.304
394.794,3.313
395.031,3.330
395.269,3.344
395.507,3.367
395.745,3.371
395.983,3.377
396.222,3.384
396.461,3.416
396.700,3.457
396.940,3.487
397.180,3.493
397.420,3.483
397.660,3.472
397.901,3.465
398.142,3.469
398.383,3.471
398.625,3.473
398.866,3.486
399.108,3.522
399.351,3.581
399.593,3.602
399.836,3.604
400.079,3.581
400.322,3.573
400.566,3.563
400.809,3.565
401.053,3.571
401.298,3.586
401.542,3.606
401.787,3.636
402.031,3.656
402.277,3.676
402.522,3.681
402.767,3.698
403.013,3.694
403.259,3.703
403.505,3.703
403.752,3.716
403.998,3.722
404.245,3.753
404.492,3.783
404.739,3.805
404.986,3.811
405.234,3.821
405.482,3.830
405.730,3.837
405.978,3.846
406.226,3.852
406.475,3.847
406.723,3.848
406.972,3.864
407.221,3.890
407.470,3.903
407.720,3.916
407.969,3.906
408.219,3.921
408.469,3.938
408.719,3.968
408.969,3.980
409.219,3.995
409.470,4.014
409.720,4.044
409.971,4.069
410.222,4.101
410.473,4.114
410.724,4.118
410.976,4.120
411.227,4.141
411.479,4.162
411.731,4.178
411.983,4.170
412.235,4.170
412.487,4.165
412.740,4.180
412.992,4.191
413.245,4.211
413.497,4.209
413.750,4.210
414.003,4.200
414.257,4.203
414.510,4.206
414.763,4.228
415.017,4.249
415.270,4.272
415.524,4.271
415.778,4.271
416.032,4.269
416.286,4.299
416.540,4.322
416.794,4.347
417.049,4.345
417.303,4.352
417.558,4.364
417.812,4.382
418.067,4.386
418.322,4.395
418.577,4.398
418.832,4.406
419.088,4.391
419.343,4.398
419.598,4.394
419.854,4.417
420.109,4.432
420.365,4.477
420.621,4.505
420.876,4.536
421.132,4.550
421.388,4.562
421.645,4.568
421.901,4.584
422.157,4.604
422.413,4.635
422.670,4.656
422.926,4.685
423.183,4.695
423.439,4.734
423.696,4.777
423.953,4.859
424.210,4.920
424.467,4.959
424.724,4.971
424.981,4.987
425.238,5.028
425.495,5.101
425.753,5.170
426.010,5.232
426.267,5.275
426.525,5.342
426.782,5.406
427.040,5.489
427.298,5.574
427.555,5.679
427.813,5.762
428.071,5.841
428.329,5.917
428.587,6.016
428.845,6.124
429.103,6.246
429.361,6.361
429.619,6.481
429.878,6.597
430.136,6.734
430.394,6.862
430.653,7.026
430.911,7.207
431.170,7.406
431.428,7.577
431.687,7.745
431.946,7.907
432.204,8.089
432.463,8.276
432.722,8.477
432.981,8.679
433.240,8.905
433.499,9.146
433.758,9.408
434.017,9.644
434.276,9.882
434.535,10.112
434.794,10.374
435.053,10.659
435.312,10.970
435.572,11.281
435.831,11.600
436.090,11.936
436.350,12.300
436.609,12.669
436.869,13.042
437.128,13.409
437.388,13.794
437.647,14.189
437.907,14.614
438.166,15.031
438.426,15.463
438.686,15.900
438.946,16.366
439.205,16.860
439.465,17.385
439.725,17.935
439.985,18.494
440.245,19.038
440.505,19.597
440.765,20.157
441.025,20.730
441.285,21.311
441.545,21.913
441.805,22.548
442.065,23.207
442.325,23.881
442.585,24.609
442.846,25.357
443.106,26.173
443.366,27.001
443.626,27.873
443.887,28.771
444.147,29.705
444.407,30.667
444.668,31.660
444.928,32.706
445.189,33.826
445.449,35.008
445.710,36.229
445.970,37.491
446.231,38.821
446.491,40.234
446.752,41.715
447.012,43.238
447.273,44.812
447.534,46.428
447.794,48.090
448.055,49.798
448.316,51.614
448.577,53.533
448.837,55.540
449.098,57.595
449.359,59.660
449.620,61.717
449.881,63.773
450.142,65.847
450.403,67.971
450.664,70.137
450.924,72.321
451.185,74.509
451.446,76.687
451.707,78.833
451.969,80.913
452.230,82.817
452.491,84.464
452.752,85.803
453.013,86.889
453.274,87.813
453.535,88.641
453.796,89.377
454.058,90.024
454.319,90.579
454.580,91.045
454.841,91.425
455.103,91.705
455.364,91.907
455.625,92.052
455.887,92.150
456.148,92.201
456.409,92.187
456.671,92.111
456.932,91.975
457.194,91.791
457.455,91.565
457.716,91.289
457.978,90.951
458.239,90.549
458.501,90.090
458.763,89.569
459.024,88.985
459.286,88.337
459.547,87.623
459.809,86.791
460.071,85.805
460.332,84.641
460.594,83.310
460.856,81.851
461.117,80.299
461.379,78.730
461.641,77.174
461.903,75.657
462.164,74.178
462.426,72.757
462.688,71.395
462.950,70.075
463.212,68.784
463.474,67.521
463.736,66.310
463.998,65.179
464.260,64.132
464.522,63.159
464.784,62.238
465.046,61.365
465.308,60.563
465.570,59.810
465.832,59.095
466.094,58.407
466.356,57.743
466.618,57.101
466.880,56.454
467.142,55.836
467.405,55.241
467.667,54.696
467.929,54.157
468.191,53.635
468.454,53.091
468.716,52.531
468.978,51.939
469.241,51.338
469.503,50.740
469.765,50.154
470.028,49.579
470.290,48.983
470.552,48.377
470.815,47.772
471.077,47.171
471.340,46.566
471.602,45.939
471.865,45.310
472.128,44.666
472.390,44.010
472.653,43.342
472.915,42.659
473.178,41.980
473.441,41.298
473.703,40.611
473.966,39.918
474.229,39.212
474.492,38.520
474.755,37.814
475.017,37.160
475.280,36.517
475.543,35.917
475.806,35.280
476.069,34.630
476.332,33.976
476.595,33.343
476.858,32.744
477.121,32.156
477.384,31.588
477.647,31.054
477.910,30.542
478.173,30.054
478.436,29.571
478.699,29.125
478.962,28.699
479.226,28.308
479.489,27.921
479.752,27.558
480.015,27.192
480.279,26.844
480.542,26.502
480.805,26.186
481.069,25.879
481.332,25.598
481.595,25.339
481.859,25.116
482.122,24.896
482.386,24.671
482.649,24.440
482.913,24.216
483.177,23.993
483.440,23.778
483.704,23.572
483.967,23.406
484.231,23.262
484.495,23.137
484.759,22.998
485.022,22.836
485.286,22.670
485.550,22.513
485.814,22.348
486.078,22.193
486.342,22.045
486.606,21.941
486.869,21.837
487.133,21.746
487.397,21.660
487.662,21.576
487.926,21.469
488.190,21.355
488.454,21.239
488.718,21.144
488.982,21.046
489.246,20.964
489.511,20.871
489.775,20.786
490.039,20.693
490.304,20.601
490.568,20.502
490.832,20.427
491.097,20.376
491.361,20.347
491.626,20.302
491.890,20.260
492.155,20.226
492.419,20.223
492.684,20.211
492.949,20.199
493.213,20.190
493.478,20.217
493.743,20.225
494.008,20.203
494.272,20.176
494.537,20.211
494.802,20.283
495.067,20.373
495.332,20.451
495.597,20.534
495.862,20.603
496.127,20.685
496.392,20.743
496.657,20.793
496.922,20.838
497.187,20.929
497.452,21.050
497.718,21.197
497.983,21.329
498.248,21.456
498.513,21.558
498.779,21.682
499.044,21.816
499.310,21.947
499.575,22.058
499.841,22.186
500.106,22.323
500.372,22.462
500.637,22.591
500.903,22.753
501.168,22.909
501.434,23.054
501.700,23.166
501.966,23.300
502.231,23.440
502.497,23.602
502.763,23.753
503.029,23.904
503.295,24.036
503.561,24.178
503.827,24.336
504.093,24.522
504.359,24.699
504.625,24.881
504.891,25.043
505.157,25.218
505.423,25.353
505.690,25.483
505.956,25.605
506.222,25.772
506.489,25.966
506.755,26.170
507.021,26.349
507.288,26.521
507.554,26.662
507.821,26.814
508.087,26.952
508.354,27.124
508.621,27.290
508.887,27.450
509.154,27.588
509.421,27.729
509.687,27.866
509.954,28.018
510.221,28.170
510.488,28.355
510.755,28.533
511.022,28.714
511.289,28.858
511.556,28.994
511.823,29.112
512.090,29.256
512.357,29.385
512.624,29.528
512.891,29.674
513.159,29.835
513.426,29.986
513.693,30.117
513.960,30.222
514.228,30.328
514.495,30.433
514.763,30.562
515.030,30.689
515.298,30.823
515.565,30.969
515.833,31.120
516.100,31.253
516.368,31.366
516.636,31.446
516.904,31.554
517.171,31.655
517.439,31.789
517.707,31.901
517.975,32.036
518.243,32.168
518.511,32.298
518.779,32.383
519.047,32.483
519.315,32.581
519.583,32.691
519.851,32.770
520.119,32.860
520.387,32.959
520.656,33.061
520.924,33.148
521.192,33.232
521.461,33.310
521.729,33.389
521.997,33.458
522.266,33.538
522.534,33.616
522.803,33.719
523.071,33.825
523.340,33.932
523.609,34.021
523.877,34.109
524.146,34.195
524.415,34.282
524.684,34.362
524.952,34.436
525.221,34.512
525.490,34.608
525.759,34.696
526.028,34.765
526.297,34.791
526.566,34.829
526.835,34.884
527.104,34.975
527.373,35.059
527.642,35.133
527.912,35.180
528.181,35.221
528.450,35.264
528.719,35.311
528.989,35.365
529.258,35.433
529.528,35.493
529.797,35.528
530.067,35.549
530.336,35.575
530.606,35.600
530.875,35.613
531.145,35.623
531.414,35.644
531.684,35.685
531.954,35.714
532.224,35.736
532.493,35.750
532.763,35.779
533.033,35.832
533.303,35.888
533.573,35.951
533.843,35.972
534.113,35.995
534.383,36.000
534.653,36.034
534.923,36.076
535.193,36.120
535.463,36.161
535.733,36.191
536.004,36.228
536.274,36.257
536.544,36.283
536.814,36.310
537.085,36.333
537.355,36.376
537.626,36.426
537.896,36.485
538.166,36.513
538.437,36.535
538.707,36.546
538.978,36.596
539.249,36.674
539.519,36.766
539.790,36.817
540.061,36.844
540.331,36.882
540.602,36.941
540.873,36.981
541.144,37.000
541.414,36.998
541.685,37.010
541.956,37.016
542.227,37.031
542.498,37.044
542.769,37.087
543.040,37.145
543.311,37.229
543.582,37.330
543.853,37.431
544.124,37.520
544.396,37.577
544.667,37.609
544.938,37.616
545.209,37.555
545.480,37.497
545.752,37.427
546.023,37.417
546.294,37.394
546.566,37.389
546.837,37.367
547.109,37.365
547.380,37.353
547.652,37.341
547.923,37.311
548.195,37.298
548.466,37.290
548.738,37.294
549.009,37.268
549.281,37.232
549.553,37.192
549.824,37.155
550.096,37.139
550.368,37.141
550.640,37.155
550.911,37.159
551.183,37.162
551.455,37.172
551.727,37.171
551.999,37.140
552.271,37.090
552.543,37.057
552.815,37.035
553.087,37.038
553.359,37.028
553.631,37.000
553.903,36.934
554.175,36.866
554.447,36.810
554.719,36.768
554.991,36.724
555.263,36.685
555.535,36.646
555.808,36.626
556.080,36.588
556.352,36.545
556.624,36.486
556.897,36.427
557.169,36.370
557.441,36.321
557.714,36.270
557.986,36.233
558.258,36.188
558.531,36.190
558.803,36.192
559.076,36.204
559.348,36.169
559.621,36.114
559.893,36.038
560.166,35.970
560.438,35.897
560.711,35.833
560.983,35.787
561.256,35.773
561.528,35.772
561.801,35.769
562.074,35.754
562.346,35.728
562.619,35.675
562.892,35.607
563.164,35.537
563.437,35.502
563.710,35.471
563.983,35.435
564.255,35.382
564.528,35.375
564.801,35.401
565.074,35.430
565.346,35.421
565.619,35.395
565.892,35.365
566.165,35.319
566.438,35.247
566.711,35.177
566.984,35.123
567.257,35.091
567.529,35.063
567.802,35.049
568.075,35.023
568.348,34.980
568.621,34.920
568.894,34.850
569.167,34.781
569.440,34.707
569.713,34.596
569.986,34.463
570.259,34.299
570.532,34.182
570.805,34.086
571.078,34.022
571.351,33.950
571.625,33.891
571.898,33.812
572.171,33.720
572.444,33.608
572.717,33.510
572.990,33.423
573.263,33.326
573.536,33.205
573.809,33.072
574.083,32.964
574.356,32.899
574.629,32.867
574.902,32.830
575.175,32.768
575.448,32.684
575.721,32.593
575.995,32.512
576.268,32.441
576.541,32.396
576.814,32.364
577.087,32.344
577.361,32.317
577.634,32.278
577.907,32.207
578.180,32.108
578.453,32.000
578.727,31.910
579.000,31.820
579.273,31.750
579.546,31.693
579.820,31.662
580.093,31.624
580.366,31.586
580.639,31.541
580.913,31.499
581.186,31.434
581.459,31.354
581.732,31.240
582.005,31.130
582.279,31.001
582.552,30.888
582.825,30.762
583.098,30.658
583.372,30.571
583.645,30.521
583.918,30.498
584.191,30.497
584.464,30.484
584.738,30.455
585.011,30.382
585.284,30.275
585.557,30.134
585.831,29.994
586.104,29.866
586.377,29.786
586.650,29.736
586.923,29.697
587.196,29.648
587.470,29.584
587.743,29.523
588.016,29.464
588.289,29.407
588.562,29.353
588.835,29.271
589.109,29.171
589.382,29.057
589.655,28.965
589.928,28.890
590.201,28.837
590.474,28.790
590.747,28.743
591.020,28.680
591.293,28.594
591.567,28.483
591.840,28.353
592.113,28.208
592.386,28.063
592.659,27.928
592.932,27.827
593.205,27.746
593.478,27.678
593.751,27.606
594.024,27.549
594.297,27.484
594.570,27.410
594.843,27.320
595.116,27.224
595.389,27.110
595.662,26.989
595.934,26.873
596.207,26.783
596.480,26.706
596.753,26.642
597.026,26.561
597.299,26.483
597.572,26.397
597.844,26.307
598.117,26.174
598.390,26.025
598.663,25.874
598.936,25.742
599.208,25.616
599.481,25.502
599.754,25.397
600.026,25.295
600.299,25.181
600.572,25.075
600.844,24.957
601.117,24.839
601.390,24.719
601.662,24.608
601.935,24.481
602.207,24.339
602.480,24.198
602.752,24.070
603.025,23.932
603.297,23.817
603.570,23.732
603.842,23.696
604.115,23.637
604.387,23.570
604.660,23.452
604.932,23.323
605.204,23.180
605.477,23.048
605.749,22.934
606.021,22.825
606.294,22.712
606.566,22.580
606.838,22.462
607.110,22.370
607.383,22.302
607.655,22.238
607.927,22.176
608.199,22.110
608.471,22.018
608.743,21.891
609.015,21.744
609.287,21.604
609.559,21.477
609.831,21.362
610.103,21.235
610.375,21.110
610.647,20.972
610.919,20.841
611.191,20.700
611.463,20.561
611.735,20.400
612.007,20.236
612.278,20.073
612.550,19.937
612.822,19.806
613.094,19.678
613.365,19.536
613.637,19.412
613.909,19.290
614.180,19.178
614.452,19.048
614.723,18.924
614.995,18.797
615.266,18.689
615.538,18.587
615.809,18.490
616.081,18.369
616.352,18.238
616.623,18.099
616.895,17.970
617.166,17.837
617.437,17.709
617.709,17.585
617.980,17.491
618.251,17.409
618.522,17.339
618.793,17.272
619.065,17.229
619.336,17.146
619.607,17.025
619.878,16.880
620.149,16.762
620.420,16.637
620.691,16.501
620.962,16.377
621.232,16.293
621.503,16.198
621.774,16.110
622.045,16.012
622.316,15.953
622.586,15.890
622.857,15.836
623.128,15.752
623.398,15.656
623.669,15.539
623.940,15.421
624.210,15.293
624.481,15.200
624.751,15.116
625.021,15.043
625.292,14.943
625.562,14.880
625.833,14.827
626.103,14.789
626.373,14.716
626.643,14.639
626.914,14.546
627.184,14.465
627.454,14.382
627.724,14.303
627.994,14.214
628.264,14.120
628.534,14.018
628.804,13.921
629.074,13.845
629.344,13.784
629.614,13.729
629.884,13.667
630.154,13.602
630.424,13.530
630.693,13.446
630.963,13.351
631.233,13.259
631.502,13.185
631.772,13.128
632.041,13.067
632.311,12.986
632.581,12.904
632.850,12.822
633.119,12.734
633.389,12.648
633.658,12.586
633.928,12.558
634.197,12.544
634.466,12.527
634.735,12.495
635.004,12.423
635.274,12.325
635.543,12.223
635.812,12.144
636.081,12.082
636.350,12.028
636.619,11.969
636.888,11.906
637.157,11.829
637.426,11.764
637.694,11.698
637.963,11.637
638.232,11.575
638.501,11.516
638.769,11.463
639.038,11.411
639.307,11.359
639.575,11.306
639.844,11.217
640.112,11.113
640.381,11.000
640.649,10.917
640.917,10.861
641.186,10.819
641.454,10.786
641.722,10.742
641.991,10.691
642.259,10.616
642.527,10.540
642.795,10.471
643.063,10.401
643.331,10.340
643.599,10.283
643.867,10.258
644.135,10.225
644.403,10.196
644.671,10.142
644.939,10.101
645.206,10.049
645.474,10.000
645.742,9.936
646.009,9.866
646.277,9.803
646.545,9.748
646.812,9.714
647.080,9.684
647.347,9.643
647.615,9.574
647.882,9.473
648.149,9.374
648.417,9.289
648.684,9.230
648.951,9.197
649.219,9.165
649.486,9.126
649.753,9.065
650.020,8.993
650.287,8.916
650.554,8.836
650.821,8.761
651.088,8.686
651.355,8.637
651.622,8.581
651.889,8.536
652.155,8.472
652.422,8.423
652.689,8.387
652.956,8.354
653.222,8.323
653.489,8.300
653.755,8.260
654.022,8.184
654.288,8.076
654.555,7.986
654.821,7.928
655.088,7.885
655.354,7.837
655.620,7.791
655.887,7.740
656.153,7.689
656.419,7.628
656.685,7.567
656.951,7.505
657.217,7.444
657.483,7.384
657.749,7.332
658.015,7.288
658.281,7.238
658.547,7.172
658.813,7.100
659.079,7.027
659.345,6.955
659.610,6.885
659.876,6.828
660.142,6.787
660.407,6.757
660.673,6.721
660.939,6.687
661.204,6.638
661.470,6.586
661.735,6.537
662.000,6.503
662.266,6.466
662.531,6.414
662.796,6.358
663.062,6.305
663.327,6.251
663.592,6.203
663.857,6.153
664.122,6.107
664.388,6.056
664.653,6.016
664.918,5.989
665.183,5.958
665.448,5.927
665.712,5.898
665.977,5.875
666.242,5.839
666.507,5.765
666.772,5.694
667.037,5.628
667.301,5.596
667.566,5.560
667.831,5.530
668.095,5.495
668.360,5.465
668.624,5.415
668.889,5.384
669.153,5.348
669.418,5.329
669.682,5.301
669.946,5.283
670.211,5.279
670.475,5.270
670.739,5.255
671.004,5.234
671.268,5.230
671.532,5.237
671.796,5.176
672.060,5.094
672.324,5.002
672.588,4.978
672.852,4.966
673.116,4.997
673.380,5.038
673.644,4.992
673.908,4.894
674.172,4.779
674.436,4.747
674.700,4.727
674.963,4.705
675.227,4.665
675.491,4.601
675.754,4.538
676.018,4.484
676.282,4.458
676.545,4.426
676.809,4.382
677.072,4.332
677.336,4.293
677.599,4.275
677.863,4.253
678.126,4.229
678.389,4.220
678.653,4.217
678.916,4.202
679.179,4.160
679.442,4.118
679.706,4.095
679.969,4.075
680.232,4.052
680.495,4.030
680.758,4.017
681.021,3.996
681.284,3.960
681.547,3.915
681.810,3.891
682.073,3.891
682.336,3.891
682.599,3.875
682.862,3.844
683.125,3.824
683.388,3.811
683.651,3.798
683.913,3.776
684.176,3.731
684.439,3.677
684.702,3.616
684.964,3.578
685.227,3.556
685.490,3.556
685.752,3.566
686.015,3.563
686.277,3.540
686.540,3.497
686.802,3.453
687.065,3.426
687.327,3.416
687.590,3.412
687.852,3.396
688.115,3.358
688.377,3.321
688.639,3.295
688.902,3.281
689.164,3.271
689.426,3.270
689.689,3.270
689.951,3.253
690.213,3.224
690.475,3.196
690.737,3.170
691.000,3.142
691.262,3.120
691.524,3.114
691.786,3.118
692.048,3.123
692.310,3.101
692.572,3.055
692.834,3.004
693.096,2.983
693.358,2.986
693.620,2.996
693.882,2.996
694.144,2.977
694.406,2.947
694.668,2.920
694.930,2.896
695.192,2.871
695.453,2.852
695.715,2.838
695.977,2.823
696.239,2.794
696.501,2.772
696.762,2.771
697.024,2.774
697.286,2.757
697.548,2.734
697.809,2.715
698.071,2.701
698.333,2.687
698.594,2.667
698.856,2.658
699.118,2.649
699.379,2.643
699.641,2.639
699.902,2.638
700.164,2.629
700.426,2.607
700.687,2.574
700.949,2.552
701.210,2.540
701.472,2.531
701.733,2.513
701.995,2.498
702.256,2.485
702.518,2.477
702.779,2.465
703.041,2.471
703.302,2.484
703.563,2.478
703.825,2.451
704.086,2.419
704.348,2.401
704.609,2.396
704.871,2.405
705.132,2.422
705.393,2.413
705.655,2.394
705.916,2.379
706.177,2.378
706.439,2.375
706.700,2.366
706.961,2.356
707.223,2.348
707.484,2.315
707.745,2.281
708.007,2.245
708.268,2.217
708.529,2.188
708.790,2.151
709.052,2.126
709.313,2.119
709.574,2.122
709.835,2.123
710.097,2.108
710.358,2.077
710.619,2.047
710.881,2.018
711.142,2.001
711.403,1.984
711.664,1.974
711.926,1.950
712.187,1.941
712.448,1.941
712.709,1.961
712.970,1.973
713.232,1.977
713.493,1.972
713.754,1.962
714.015,1.955
714.277,1.955
714.538,1.964
714.799,1.983
715.060,1.993
715.322,1.991
715.583,1.968
715.844,1.939
716.105,1.910
716.367,1.892
716.628,1.888
716.889,1.887
717.150,1.873
717.411,1.846
717.673,1.831
717.934,1.829
718.195,1.832
718.457,1.819
718.718,1.795
718.979,1.778
719.240,1.782
719.502,1.797
719.763,1.808
720.024,1.810
720.286,1.806
720.547,1.788
720.808,1.773
721.069,1.763
721.331,1.773
721.592,1.787
721.853,1.793
722.115,1.793
722.376,1.789
722.638,1.777
722.899,1.766
723.160,1.746
723.422,1.728
723.683,1.713
723.944,1.718
724.206,1.723
724.467,1.724
724.729,1.716
724.990,1.726
725.252,1.739
725.513,1.729
725.775,1.699
726.036,1.673
726.298,1.672
726.559,1.686
726.821,1.691
727.082,1.692
727.344,1.686
727.605,1.685
727.867,1.679
728.128,1.687
728.390,1.693
728.652,1.708
728.913,1.725
729.175,1.739
729.436,1.740
729.698,1.737
729.960,1.728
730.221,1.716
730.483,1.690
730.745,1.678
731.007,1.675
731.268,1.678
731.530,1.680
731.792,1.681
732.054,1.688
732.315,1.696
732.577,1.704
732.839,1.694
733.101,1.675
733.363,1.656
733.625,1.648
733.887,1.652
734.149,1.656
734.411,1.669
734.673,1.678
734.935,1.683
735.197,1.676
735.459,1.679
735.721,1.685
735.983,1.682
736.245,1.659
736.507,1.653
736.769,1.666
737.031,1.684
737.293,1.677
737.555,1.655
737.818,1.637
738.080,1.623
738.342,1.621
738.604,1.619
738.867,1.624
739.129,1.625
739.391,1.625
739.654,1.627
739.916,1.631
740.178,1.642
740.441,1.659
740.703,1.668
740.966,1.663
741.228,1.652
741.491,1.646
741.753,1.651
742.016,1.652
742.278,1.651
742.541,1.651
742.804,1.659
743.066,1.673
743.329,1.677
743.592,1.668
743.854,1.663
744.117,1.668
744.380,1.677
744.643,1.672
744.905,1.659
745.168,1.650
745.431,1.640
745.694,1.628
745.957,1.616
746.220,1.609
746.483,1.607
746.746,1.612
747.009,1.637
747.272,1.677
747.535,1.709
747.798,1.710
748.061,1.684
748.324,1.651
748.588,1.632
748.851,1.628
749.114,1.628
749.377,1.634
749.641,1.635
749.904,1.645
750.167,1.661
750.431,1.676
750.694,1.687
750.958,1.688
751.221,1.676
751.485,1.646
751.748,1.625
752.012,1.630
752.275,1.662
752.539,1.677
752.803,1.669
753.066,1.641
753.330,1.621
753.594,1.613
753.857,1.614
754.121,1.626
754.385,1.641
754.649,1.651
754.913,1.652
755.177,1.658
755.441,1.652
755.705,1.635
755.969,1.612
756.233,1.614
756.497,1.629
756.761,1.635
757.025,1.625
757.289,1.614
757.553,1.613
757.818,1.624
758.082,1.637
758.346,1.644
758.610,1.646
758.875,1.640
759.139,1.634
759.404,1.623
759.668,1.615
759.932,1.615
760.197,1.625
760.462,1.631
760.726,1.630
760.991,1.627
761.255,1.626
761.520,1.621
761.785,1.605
762.049,1.578
762.314,1.561
762.579,1.571
762.844,1.600
763.109,1.620
763.374,1.622
763.639,1.615
763.903,1.602
764.168,1.590
764.433,1.586
764.699,1.604
764.964,1.618
765.229,1.614
765.494,1.594
765.759,1.580
766.024,1.576
766.290,1.582
766.555,1.592
766.820,1.604
767.086,1.612
767.351,1.615
767.616,1.611
767.882,1.602
768.147,1.597
768.413,1.587
768.678,1.572
768.944,1.566
769.209,1.577
769.475,1.601
769.741,1.620
770.006,1.634
770.272,1.641
770.538,1.636
770.804,1.627
771.070,1.624
771.335,1.634
771.601,1.649
771.867,1.653
772.133,1.643
772.399,1.625
772.665,1.599
772.931,1.591
773.197,1.601
773.464,1.623
773.730,1.640
773.996,1.643
774.262,1.643
774.528,1.634
774.795,1.635
775.061,1.648
775.327,1.655
775.594,1.642
775.860,1.613
776.126,1.575
776.393,1.549
776.659,1.540
776.926,1.541
777.193,1.551
777.459,1.559
777.726,1.558
777.992,1.552
778.259,1.536
778.526,1.538
778.793,1.542
779.059,1.560
779.326,1.579
779.593,1.594
779.860,1.609
780.127,1.608
780.394,1.604
780.661,1.597
780.928,1.585
781.195,1.569
781.462,1.550
781.729,1.551
781.996,1.560
782.263,1.572
782.530,1.588
782.797,1.598
783.064,1.588
783.332,1.566
783.599,1.543
783.866,1.542
784.134,1.540
784.401,1.543
784.668,1.547
784.936,1.557
785.203,1.555
785.470,1.539
785.738,1.525
786.005,1.519
786.273,1.514
786.541,1.505
786.808,1.508
787.076,1.517
787.343,1.532
787.611,1.547
787.879,1.568
788.146,1.574
788.414,1.579
788.682,1.567
788.950,1.560
789.217,1.556
789.485,1.574
789.753,1.594
790.021,1.582
790.289,1.546
790.557,1.508
790.825,1.492
791.093,1.506
791.361,1.538
791.629,1.571
791.897,1.590
792.165,1.587
792.433,1.572
792.701,1.537
792.969,1.506
793.237,1.486
793.505,1.504
793.773,1.527
794.042,1.531
794.310,1.515
794.578,1.500
794.846,1.501
795.115,1.503
795.383,1.507
795.651,1.525
795.920,1.542
796.188,1.550
796.456,1.555
796.725,1.560
796.993,1.578
797.261,1.590
797.530,1.590
797.798,1.579
798.067,1.579
798.335,1.588
798.604,1.587
798.872,1.554
799.141,1.524
799.409,1.510
799.678,1.524
799.946,1.541
800.215,1.549
800.483,1.541
800.752,1.536
801.020,1.531
801.289,1.531
801.558,1.532
801.826,1.532
802.095,1.523
802.363,1.520
802.632,1.526
802.901,1.543
803.169,1.551
803.438,1.542
803.707,1.519
803.976,1.498
804.244,1.495
804.513,1.503
804.782,1.496
805.050,1.487
805.319,1.493
805.588,1.513
805.857,1.535
806.125,1.546
806.394,1.542
806.663,1.521
806.931,1.497
807.200,1.485
807.469,1.487
807.738,1.488
808.006,1.487
808.275,1.504
808.544,1.537
808.813,1.567
809.082,1.568
809.350,1.550
809.619,1.538
809.888,1.528
810.157,1.517
810.425,1.502
810.694,1.497
810.963,1.509
811.232,1.507
811.500,1.496
811.769,1.475
812.038,1.476
812.306,1.494
812.575,1.522
812.844,1.542
813.113,1.550
813.381,1.538
813.650,1.538
813.919,1.548
814.187,1.565
814.456,1.571
814.725,1.570
814.993,1.559
815.262,1.551
815.531,1.543
815.799,1.545
816.068,1.531
816.336,1.507
816.605,1.492
816.873,1.496
817.142,1.518
817.411,1.544
817.679,1.562
817.948,1.579
818.216,1.602
818.485,1.650
818.753,1.691
819.021,1.663
819.290,1.588
819.558,1.526
819.827,1.526
820.095,1.547
820.363,1.557
820.632,1.553
820.900,1.547
821.168,1.549
821.437,1.562
821.705,1.569
821.973,1.569
822.241,1.566
822.509,1.567
822.777,1.555
823.046,1.548
823.314,1.554
823.582,1.571
823.850,1.581
824.118,1.584
824.386,1.574
824.654,1.537
824.922,1.496
825.190,1.469
825.457,1.486
825.725,1.513
825.993,1.518
826.261,1.507
826.529,1.501
826.796,1.504
827.064,1.503
827.332,1.499
827.599,1.510
827.867,1.541
828.134,1.555
828.402,1.535
828.669,1.506
828.937,1.491
829.204,1.517
829.471,1.556
829.739,1.582
830.006,1.584
830.273,1.566
830.540,1.544
830.807,1.515
831.075,1.503
831.342,1.511
831.609,1.524
831.876,1.538
832.142,1.547
832.409,1.561
832.676,1.548
832.943,1.520
833.210,1.494
833.476,1.491
833.743,1.503
834.010,1.513
834.276,1.499
834.543,1.481
834.809,1.481
835.076,1.496
835.342,1.505
835.608,1.526
835.874,1.550
836.141,1.557
836.407,1.545
836.673,1.520
836.939,1.513
837.205,1.505
837.471,1.510
837.737,1.518
838.002,1.521
838.268,1.516
838.534,1.515
838.799,1.511
839.065,1.522
839.330,1.521
839.596,1.526
839.861,1.533
840.127,1.546
840.392,1.557
840.657,1.562
840.922,1.578
841.187,1.594
841.452,1.596
841.717,1.590
841.982,1.575
842.247,1.552
842.511,1.528
842.776,1.519
843.041,1.523
843.305,1.514
843.570,1.503
843.834,1.496
844.098,1.496
844.362,1.499
844.627,1.496
844.891,1.497
845.155,1.503
845.419,1.521
845.682,1.536
845.946,1.545
846.210,1.552
846.474,1.552
846.737,1.556
847.001,1.552
847.264,1.533
847.527,1.519
847.790,1.511
848.054,1.513
848.317,1.497
848.580,1.485
848.843,1.490
849.105,1.522
849.368,1.556
849.631,1.573
849.893,1.577
850.156,1.585
850.418,1.590
850.680,1.560
850.943,1.531
851.205,1.526
851.467,1.533
851.729,1.526
851.991,1.518
852.252,1.530
852.514,1.551
852.776,1.559
853.037,1.565
853.298,1.558
853.560,1.539
853.821,1.509
854.082,1.480
854.343,1.481
854.604,1.514
854.865,1.564
855.126,1.598
855.386,1.611
855.647,1.610
855.907,1.594
856.168,1.567
856.428,1.540
856.688,1.531
856.948,1.509
857.208,1.487
857.468,1.480
857.727,1.501
857.987,1.523
858.247,1.537
858.506,1.551
858.765,1.551
859.024,1.524
859.284,1.493
859.543,1.476
859.801,1.480
860.060,1.487
860.319,1.515
860.577,1.545
860.836,1.564
861.094,1.569
861.352,1.560
861.611,1.538
861.869,1.506
862.127,1.494
862.384,1.508
862.642,1.521
862.900,1.541
863.157,1.552
863.414,1.546
863.672,1.515
863.929,1.476
864.186,1.467
864.443,1.484
864.699,1.508
864.956,1.523
865.212,1.504
865.469,1.489
865.725,1.495
865.981,1.521
866.237,1.537
866.493,1.534
866.749,1.507
867.005,1.490
867.260,1.476
867.516,1.475
867.771,1.471
868.026,1.479
868.282,1.508
868.536,1.528
868.791,1.524
869.046,1.494
869.301,1.475
869.555,1.477
869.809,1.504
870.064,1.528
870.318,1.548
870.572,1.557
870.826,1.533
871.079,1.501
871.333,1.478
871.586,1.485
871.840,1.489
872.093,1.489
872.346,1.506
872.599,1.543
872.852,1.580
873.105,1.600
873.357,1.589
873.610,1.563
873.862,1.550
874.114,1.551
874.366,1.556
874.618,1.544
874.870,1.510
875.121,1.479
875.373,1.466
875.624,1.477
875.876,1.485
876.127,1.485
876.378,1.484
876.629,1.486
876.879,1.495
877.130,1.501
877.381,1.494
877.631,1.474
877.881,1.460
878.131,1.477
878.381,1.515
878.631,1.559
878.881,1.579
879.130,1.575
879.380,1.559
879.629,1.543
879.878,1.521
880.127,1.506
880.376,1.507
880.625,1.531
880.873,1.555
881.122,1.569
881.370,1.563
881.618,1.542
881.866,1.519
882.114,1.502
882.362,1.496
882.610,1.506
882.857,1.517
883.105,1.524
883.352,1.505
883.599,1.483
883.846,1.468
884.093,1.471
884.340,1.487
884.586,1.513
884.833,1.528
885.079,1.533
885.325,1.518
885.571,1.511
885.817,1.504
886.063,1.518
886.309,1.530
886.554,1.552
886.800,1.563
887.045,1.568
887.290,1.544
887.535,1.508
887.780,1.488
888.025,1.503
888.270,1.540
888.514,1.576
888.758,1.587
889.003,1.579
889.247,1.543
889.491,1.532
889.735,1.537
889.978,1.560
890.222,1.556
890.465,1.538
890.709,1.518
890.952,1.501
891.195,1.489
891.438,1.486
891.681,1.482
891.923,1.485
892.166,1.494
892.408,1.505
892.651,1.499
892.893,1.481
893.135,1.468
893.377,1.467
893.619,1.475
893.861,1.489
894.102,1.504
894.344,1.536
894.585,1.573
894.826,1.600
895.067,1.585
895.308,1.558
895.549,1.527
895.790,1.506
896.031,1.481
896.271,1.485
896.512,1.516
896.752,1.550
896.992,1.557
897.232,1.534
897.472,1.514
897.712,1.527
897.952,1.560
898.191,1.574
898.431,1.567
898.670,1.568
898.910,1.579
899.149,1.600
899.388,1.607
899.627,1.608
899.866,1.588
900.105,1.554
900.343,1.535
900.582,1.534
900.820,1.550
901.059,1.574
901.297,1.588
901.535,1.564
901.773,1.520
902.011,1.479
902.249,1.461
902.487,1.458
902.725,1.468
902.963,1.494
903.200,1.504
903.438,1.501
903.675,1.500
903.912,1.511
904.150,1.536
904.387,1.544
904.624,1.529
904.861,1.501
905.098,1.484
905.334,1.491
905.571,1.490
905.808,1.493
906.045,1.508
906.281,1.530
906.518,1.539
906.754,1.543
906.990,1.546
907.227,1.541
907.463,1.517
907.699,1.499
907.935,1.510
908.171,1.534
908.407,1.537
908.643,1.531
908.879,1.524
909.115,1.538
909.350,1.545
909.586,1.545
909.822,1.542
910.057,1.559
910.293,1.597
910.528,1.622
910.764,1.618
910.999,1.607
911.235,1.590
911.470,1.589
911.706,1.575
911.941,1.569
912.176,1.551
912.412,1.532
912.647,1.526
912.882,1.534
913.117,1.542
913.352,1.538
913.588,1.524
913.823,1.516
914.058,1.510
914.293,1.506
914.528,1.492
914.763,1.479
914.999,1.471
915.234,1.474
915.469,1.483
915.704,1.487
915.939,1.489
916.174,1.484
916.409,1.488
916.645,1.510
916.880,1.533
917.115,1.546
917.350,1.536
917.586,1.525
917.821,1.526
918.056,1.546
918.292,1.569
918.527,1.566
918.763,1.540
918.998,1.514
919.234,1.525
919.469,1.558
919.705,1.580
919.940,1.578
920.176,1.565
920.412,1.571
920.648,1.572
920.884,1.562
921.120,1.536
921.356,1.514
921.592,1.501
921.828,1.498
922.065,1.509
922.301,1.536
922.537,1.571
922.774,1.587
923.011,1.568
923.247,1.532
923.484,1.524
923.721,1.545
923.958,1.569
924.195,1.564
924.433,1.548
924.670,1.519
924.908,1.491
925.145,1.483
925.383,1.503
925.621,1.528
925.859,1.545
926.097,1.556
926.335,1.559
926.574,1.561
926.813,1.561
927.051,1.559
927.290,1.554
927.529,1.567
927.769,1.599
928.008,1.617
928.248,1.585
928.487,1.549
928.727,1.534
928.967,1.560
929.208,1.581
929.448,1.583
929.689,1.564
929.930,1.530
930.171,1.500
930.413,1.489
930.654,1.492
930.896,1.484
931.138,1.467
931.380,1.453
931.623,1.467
931.865,1.499
932.108,1.532
932.352,1.555
932.595,1.562
932.839,1.571
933.083,1.561
933.327,1.543
933.571,1.514
933.816,1.514
934.061,1.525
934.307,1.528
934.552,1.509
934.798,1.498
935.045,1.501
935.291,1.513
935.538,1.523
935.785,1.540
936.033,1.559
936.281,1.573
936.529,1.580
936.777,1.574
937.026,1.553
937.275,1.535
937.525,1.516
937.775,1.503
938.025,1.486
938.276,1.475
938.527,1.474
938.778,1.474
939.030,1.472
939.282,1.471
939.535,1.477
939.788,1.493
940.041,1.493
940.295,1.482
940.550,1.482
940.804,1.505
941.059,1.533
941.315,1.528
941.571,1.505
941.828,1.488
942.085,1.488
942.342,1.499
942.600,1.500
942.858,1.497
943.117,1.483
943.377,1.469
943.636,1.455
943.897,1.454
944.158,1.465
944.419,1.486
944.681,1.500
944.944,1.516
945.207,1.523
945.470,1.534
945.734,1.543
945.999,1.567
946.264,1.594
946.530,1.607
946.797,1.595
947.064,1.574
947.331,1.556
947.600,1.531
947.869,1.508
948.138,1.486
948.408,1.478
948.679,1.483
948.950,1.500
949.222,1.501
949.495,1.493
949.768,1.490
950.043,1.516
