Wavelength (nm),Intensity W6.2,,C:/Users/Brend/Desktop/LED Spectras v2/Spectrometer Data (White).sp,,,W6.2,
379.792,2.191,,2018-06-15 10:39:54,,Integration Time,186 ms,
380.000,2.187,,Analyze Light,,Number of Scans to Average,25,
380.209,2.183,,,,Smoothing,1,
380.418,2.191
380.627,2.209
380.837,2.229
381.048,2.244
381.259,2.245
381.471,2.243
381.683,2.251
381.896,2.267
382.110,2.274
382.324,2.286
382.538,2.305
382.753,2.330
382.969,2.328
383.185,2.318
383.402,2.304
383.619,2.311
383.837,2.323
384.055,2.344
384.274,2.364
384.493,2.379
384.712,2.387
384.932,2.393
385.153,2.398
385.374,2.408
385.596,2.417
385.818,2.438
386.040,2.461
386.263,2.487
386.487,2.498
386.710,2.505
386.935,2.495
387.159,2.491
387.385,2.482
387.610,2.481
387.836,2.479
388.063,2.488
388.289,2.503
388.517,2.517
388.744,2.524
388.972,2.543
389.201,2.553
389.430,2.561
389.659,2.563
389.889,2.578
390.119,2.593
390.349,2.607
390.580,2.623
390.811,2.636
391.042,2.642
391.274,2.646
391.507,2.655
391.739,2.660
391.972,2.654
392.205,2.657
392.439,2.672
392.673,2.692
392.907,2.709
393.142,2.728
393.377,2.741
393.612,2.756
393.848,2.759
394.084,2.770
394.320,2.772
394.557,2.786
394.794,2.794
395.031,2.813
395.269,2.831
395.507,2.853
395.745,2.858
395.983,2.866
396.222,2.877
396.461,2.902
396.700,2.925
396.940,2.940
397.180,2.946
397.420,2.941
397.660,2.934
397.901,2.927
398.142,2.927
398.383,2.927
398.625,2.929
398.866,2.942
399.108,2.970
399.351,3.008
399.593,3.020
399.836,3.019
400.079,3.001
400.322,2.995
400.566,2.987
400.809,2.991
401.053,3.004
401.298,3.020
401.542,3.028
401.787,3.041
402.031,3.058
402.277,3.081
402.522,3.089
402.767,3.099
403.013,3.096
403.259,3.107
403.505,3.111
403.752,3.124
403.998,3.125
404.245,3.146
404.492,3.171
404.739,3.193
404.986,3.199
405.234,3.205
405.482,3.214
405.730,3.216
405.978,3.220
406.226,3.223
406.475,3.221
406.723,3.222
406.972,3.233
407.221,3.259
407.470,3.274
407.720,3.292
407.969,3.290
408.219,3.305
408.469,3.317
408.719,3.337
408.969,3.345
409.219,3.356
409.470,3.367
409.720,3.382
409.971,3.392
410.222,3.415
410.473,3.425
410.724,3.432
410.976,3.437
411.227,3.454
411.479,3.465
411.731,3.474
411.983,3.472
412.235,3.477
412.487,3.474
412.740,3.485
412.992,3.495
413.245,3.515
413.497,3.521
413.750,3.527
414.003,3.524
414.257,3.527
414.510,3.527
414.763,3.542
415.017,3.553
415.270,3.571
415.524,3.572
415.778,3.578
416.032,3.583
416.286,3.604
416.540,3.617
416.794,3.634
417.049,3.636
417.303,3.644
417.558,3.651
417.812,3.666
418.067,3.681
418.322,3.694
418.577,3.699
418.832,3.702
419.088,3.696
419.343,3.705
419.598,3.707
419.854,3.724
420.109,3.738
420.365,3.769
420.621,3.790
420.876,3.818
421.132,3.834
421.388,3.855
421.645,3.862
421.901,3.883
422.157,3.906
422.413,3.940
422.670,3.965
422.926,3.994
423.183,4.009
423.439,4.044
423.696,4.086
423.953,4.159
424.210,4.220
424.467,4.269
424.724,4.301
424.981,4.333
425.238,4.380
425.495,4.446
425.753,4.510
426.010,4.580
426.267,4.644
426.525,4.733
426.782,4.814
427.040,4.902
427.298,4.992
427.555,5.103
427.813,5.206
428.071,5.310
428.329,5.404
428.587,5.512
428.845,5.624
429.103,5.751
429.361,5.874
429.619,6.005
429.878,6.147
430.136,6.312
430.394,6.474
430.653,6.652
430.911,6.833
431.170,7.028
431.428,7.205
431.687,7.384
431.946,7.571
432.204,7.776
432.463,7.984
432.722,8.200
432.981,8.422
433.240,8.667
433.499,8.918
433.758,9.193
434.017,9.457
434.276,9.734
434.535,9.997
434.794,10.280
435.053,10.577
435.312,10.901
435.572,11.231
435.831,11.577
436.090,11.931
436.350,12.310
436.609,12.691
436.869,13.084
437.128,13.471
437.388,13.878
437.647,14.300
437.907,14.747
438.166,15.194
438.426,15.645
438.686,16.103
438.946,16.583
439.205,17.093
439.465,17.627
439.725,18.183
439.985,18.761
440.245,19.338
440.505,19.932
440.765,20.523
441.025,21.136
441.285,21.761
441.545,22.411
441.805,23.091
442.065,23.784
442.325,24.507
442.585,25.264
442.846,26.065
443.106,26.915
443.366,27.810
443.626,28.740
443.887,29.688
444.147,30.678
444.407,31.708
444.668,32.801
444.928,33.941
445.189,35.149
445.449,36.418
445.710,37.749
445.970,39.140
446.231,40.616
446.491,42.180
446.752,43.817
447.012,45.508
447.273,47.255
447.534,49.060
447.794,50.908
448.055,52.810
448.316,54.808
448.577,56.904
448.837,59.068
449.098,61.258
449.359,63.467
449.620,65.675
449.881,67.877
450.142,70.088
450.403,72.330
450.664,74.605
450.924,76.866
451.185,79.097
451.446,81.228
451.707,83.179
451.969,84.861
452.230,86.238
452.491,87.373
452.752,88.323
453.013,89.151
453.274,89.868
453.535,90.482
453.796,90.988
454.058,91.390
454.319,91.694
454.580,91.915
454.841,92.064
455.103,92.145
455.364,92.156
455.625,92.106
455.887,91.996
456.148,91.841
456.409,91.629
456.671,91.348
456.932,90.978
457.194,90.522
457.455,89.990
457.716,89.374
457.978,88.670
458.239,87.846
458.501,86.898
458.763,85.782
459.024,84.445
459.286,82.856
459.547,81.065
459.809,79.145
460.071,77.197
460.332,75.256
460.594,73.360
460.856,71.522
461.117,69.744
461.379,68.058
461.641,66.436
461.903,64.887
462.164,63.398
462.426,61.996
462.688,60.693
462.950,59.477
463.212,58.336
463.474,57.244
463.736,56.226
463.998,55.299
464.260,54.469
464.522,53.715
464.784,53.017
465.046,52.366
465.308,51.766
465.570,51.221
465.832,50.712
466.094,50.226
466.356,49.753
466.618,49.296
466.880,48.834
467.142,48.365
467.405,47.904
467.667,47.468
467.929,47.031
468.191,46.575
468.454,46.101
468.716,45.603
468.978,45.063
469.241,44.478
469.503,43.878
469.765,43.296
470.028,42.712
470.290,42.120
470.552,41.496
470.815,40.857
471.077,40.202
471.340,39.529
471.602,38.850
471.865,38.160
472.128,37.462
472.390,36.772
472.653,36.074
472.915,35.391
473.178,34.691
473.441,33.999
473.703,33.286
473.966,32.595
474.229,31.902
474.492,31.236
474.755,30.566
475.017,29.926
475.280,29.306
475.543,28.723
475.806,28.144
476.069,27.580
476.332,27.028
476.595,26.514
476.858,26.014
477.121,25.527
477.384,25.054
477.647,24.637
477.910,24.258
478.173,23.913
478.436,23.558
478.699,23.226
478.962,22.914
479.226,22.652
479.489,22.401
479.752,22.172
480.015,21.935
480.279,21.716
480.542,21.497
480.805,21.298
481.069,21.105
481.332,20.932
481.595,20.773
481.859,20.653
482.122,20.530
482.386,20.398
482.649,20.241
482.913,20.087
483.177,19.937
483.440,19.796
483.704,19.670
483.967,19.576
484.231,19.489
484.495,19.412
484.759,19.324
485.022,19.235
485.286,19.133
485.550,19.028
485.814,18.898
486.078,18.775
486.342,18.660
486.606,18.580
486.869,18.505
487.133,18.445
487.397,18.396
487.662,18.346
487.926,18.276
488.190,18.190
488.454,18.102
488.718,18.035
488.982,17.962
489.246,17.905
489.511,17.841
489.775,17.792
490.039,17.751
490.304,17.719
490.568,17.687
490.832,17.663
491.097,17.653
491.361,17.662
491.626,17.665
491.890,17.674
492.155,17.685
492.419,17.724
492.684,17.760
492.949,17.798
493.213,17.837
493.478,17.899
493.743,17.960
494.008,18.004
494.272,18.043
494.537,18.115
494.802,18.215
495.067,18.331
495.332,18.442
495.597,18.566
495.862,18.689
496.127,18.826
496.392,18.954
496.657,19.072
496.922,19.183
497.187,19.318
497.452,19.472
497.718,19.651
497.983,19.815
498.248,19.986
498.513,20.138
498.779,20.314
499.044,20.475
499.310,20.629
499.575,20.761
499.841,20.908
500.106,21.071
500.372,21.237
500.637,21.405
500.903,21.595
501.168,21.783
501.434,21.965
501.700,22.124
501.966,22.292
502.231,22.457
502.497,22.621
502.763,22.774
503.029,22.924
503.295,23.088
503.561,23.275
503.827,23.472
504.093,23.667
504.359,23.841
504.625,24.027
504.891,24.205
505.157,24.396
505.423,24.560
505.690,24.709
505.956,24.856
506.222,25.033
506.489,25.235
506.755,25.448
507.021,25.641
507.288,25.825
507.554,25.981
507.821,26.140
508.087,26.310
508.354,26.505
508.621,26.688
508.887,26.847
509.154,26.992
509.421,27.147
509.687,27.300
509.954,27.458
510.221,27.621
510.488,27.810
510.755,28.007
511.022,28.206
511.289,28.377
511.556,28.531
511.823,28.667
512.090,28.822
512.357,28.970
512.624,29.127
512.891,29.274
513.159,29.426
513.426,29.578
513.693,29.734
513.960,29.880
514.228,30.024
514.495,30.157
514.763,30.290
515.030,30.408
515.298,30.530
515.565,30.675
515.833,30.825
516.100,30.951
516.368,31.058
516.636,31.158
516.904,31.283
517.171,31.387
517.439,31.501
517.707,31.607
517.975,31.737
518.243,31.863
518.511,31.979
518.779,32.072
519.047,32.187
519.315,32.309
519.583,32.433
519.851,32.522
520.119,32.602
520.387,32.687
520.656,32.792
520.924,32.918
521.192,33.043
521.461,33.147
521.729,33.228
521.997,33.294
522.266,33.361
522.534,33.428
522.803,33.513
523.071,33.603
523.340,33.694
523.609,33.783
523.877,33.880
524.146,33.969
524.415,34.054
524.684,34.129
524.952,34.210
525.221,34.290
525.490,34.386
525.759,34.483
526.028,34.563
526.297,34.609
526.566,34.653
526.835,34.707
527.104,34.774
527.373,34.841
527.642,34.907
527.912,34.955
528.181,35.003
528.450,35.059
528.719,35.125
528.989,35.194
529.258,35.261
529.528,35.314
529.797,35.352
530.067,35.389
530.336,35.434
530.606,35.468
530.875,35.478
531.145,35.489
531.414,35.522
531.684,35.578
531.954,35.623
532.224,35.643
532.493,35.651
532.763,35.674
533.033,35.713
533.303,35.748
533.573,35.789
533.843,35.811
534.113,35.842
534.383,35.855
534.653,35.893
534.923,35.937
535.193,35.994
535.463,36.038
535.733,36.058
536.004,36.053
536.274,36.047
536.544,36.045
536.814,36.059
537.085,36.087
537.355,36.151
537.626,36.223
537.896,36.277
538.166,36.284
538.437,36.285
538.707,36.289
538.978,36.320
539.249,36.385
539.519,36.477
539.790,36.559
540.061,36.618
540.331,36.654
540.602,36.682
540.873,36.683
541.144,36.674
541.414,36.669
541.685,36.687
541.956,36.703
542.227,36.717
542.498,36.730
542.769,36.766
543.040,36.827
543.311,36.895
543.582,36.970
543.853,37.027
544.124,37.068
544.396,37.095
544.667,37.116
544.938,37.143
545.209,37.128
545.480,37.099
545.752,37.058
546.023,37.049
546.294,37.027
546.566,37.002
546.837,36.959
547.109,36.936
547.380,36.916
547.652,36.906
547.923,36.911
548.195,36.938
548.466,36.965
548.738,36.976
549.009,36.951
549.281,36.912
549.553,36.861
549.824,36.810
550.096,36.793
550.368,36.803
550.640,36.830
550.911,36.855
551.183,36.893
551.455,36.929
551.727,36.933
551.999,36.885
552.271,36.815
552.543,36.767
552.815,36.734
553.087,36.733
553.359,36.726
553.631,36.722
553.903,36.693
554.175,36.664
554.447,36.626
554.719,36.578
554.991,36.515
555.263,36.457
555.535,36.418
555.808,36.395
556.080,36.376
556.352,36.358
556.624,36.327
556.897,36.279
557.169,36.215
557.441,36.145
557.714,36.068
557.986,36.005
558.258,35.938
558.531,35.908
558.803,35.887
559.076,35.891
559.348,35.867
559.621,35.830
559.893,35.782
560.166,35.736
560.438,35.690
560.711,35.651
560.983,35.629
561.256,35.617
561.528,35.593
561.801,35.561
562.074,35.515
562.346,35.470
562.619,35.418
562.892,35.361
563.164,35.299
563.437,35.249
563.710,35.199
563.983,35.158
564.255,35.120
564.528,35.121
564.801,35.139
565.074,35.151
565.346,35.119
565.619,35.074
565.892,35.014
566.165,34.946
566.438,34.847
566.711,34.741
566.984,34.649
567.257,34.576
567.529,34.531
567.802,34.506
568.075,34.478
568.348,34.445
568.621,34.403
568.894,34.365
569.167,34.303
569.440,34.233
569.713,34.140
569.986,34.054
570.259,33.937
570.532,33.830
570.805,33.733
571.078,33.661
571.351,33.593
571.625,33.524
571.898,33.449
572.171,33.372
572.444,33.288
572.717,33.217
572.990,33.144
573.263,33.040
573.536,32.889
573.809,32.730
574.083,32.601
574.356,32.527
574.629,32.482
574.902,32.437
575.175,32.383
575.448,32.312
575.721,32.234
575.995,32.153
576.268,32.068
576.541,31.994
576.814,31.919
577.087,31.855
577.361,31.804
577.634,31.765
577.907,31.713
578.180,31.651
578.453,31.578
578.727,31.502
579.000,31.409
579.273,31.324
579.546,31.258
579.820,31.210
580.093,31.152
580.366,31.083
580.639,31.005
580.913,30.939
581.186,30.871
581.459,30.812
581.732,30.733
582.005,30.659
582.279,30.567
582.552,30.478
582.825,30.374
583.098,30.278
583.372,30.188
583.645,30.124
583.918,30.074
584.191,30.037
584.464,29.986
584.738,29.931
585.011,29.862
585.284,29.783
585.557,29.678
585.831,29.557
586.104,29.433
586.377,29.334
586.650,29.256
586.923,29.197
587.196,29.147
587.470,29.099
587.743,29.057
588.016,29.011
588.289,28.962
588.562,28.910
588.835,28.828
589.109,28.728
589.382,28.608
589.655,28.499
589.928,28.411
590.201,28.344
590.474,28.301
590.747,28.262
591.020,28.220
591.293,28.161
591.567,28.076
591.840,27.959
592.113,27.815
592.386,27.662
592.659,27.514
592.932,27.390
593.205,27.295
593.478,27.225
593.751,27.166
594.024,27.123
594.297,27.081
594.570,27.041
594.843,26.982
595.116,26.896
595.389,26.781
595.662,26.652
595.934,26.525
596.207,26.418
596.480,26.325
596.753,26.245
597.026,26.156
597.299,26.072
597.572,25.992
597.844,25.914
598.117,25.805
598.390,25.685
598.663,25.544
598.936,25.406
599.208,25.265
599.481,25.133
599.754,25.005
600.026,24.884
600.299,24.776
600.572,24.686
600.844,24.591
601.117,24.483
601.390,24.369
601.662,24.264
601.935,24.148
602.207,24.021
602.480,23.876
602.752,23.735
603.025,23.571
603.297,23.426
603.570,23.311
603.842,23.248
604.115,23.182
604.387,23.104
604.660,22.984
604.932,22.861
605.204,22.731
605.477,22.607
605.749,22.483
606.021,22.360
606.294,22.233
606.566,22.098
606.838,21.965
607.110,21.845
607.383,21.745
607.655,21.669
607.927,21.612
608.199,21.558
608.471,21.471
608.743,21.358
609.015,21.225
609.287,21.105
609.559,20.986
609.831,20.874
610.103,20.737
610.375,20.594
610.647,20.433
610.919,20.284
611.191,20.142
611.463,20.014
611.735,19.874
612.007,19.730
612.278,19.587
612.550,19.457
612.822,19.330
613.094,19.202
613.365,19.055
613.637,18.906
613.909,18.745
614.180,18.603
614.452,18.463
614.723,18.342
614.995,18.220
615.266,18.116
615.538,18.026
615.809,17.953
616.081,17.864
616.352,17.755
616.623,17.629
616.895,17.504
617.166,17.368
617.437,17.228
617.709,17.092
617.980,16.980
618.251,16.883
618.522,16.808
618.793,16.744
619.065,16.694
619.336,16.611
619.607,16.520
619.878,16.417
620.149,16.330
620.420,16.219
620.691,16.092
620.962,15.958
621.232,15.848
621.503,15.735
621.774,15.635
622.045,15.537
622.316,15.479
622.586,15.428
622.857,15.382
623.128,15.297
623.398,15.203
623.669,15.095
623.940,14.994
624.210,14.890
624.481,14.804
624.751,14.715
625.021,14.635
625.292,14.545
625.562,14.479
625.833,14.402
626.103,14.335
626.373,14.257
626.643,14.197
626.914,14.116
627.184,14.024
627.454,13.921
627.724,13.829
627.994,13.743
628.264,13.652
628.534,13.555
628.804,13.466
629.074,13.398
629.344,13.344
629.614,13.293
629.884,13.237
630.154,13.179
630.424,13.122
630.693,13.056
630.963,12.980
631.233,12.892
631.502,12.819
631.772,12.751
632.041,12.687
632.311,12.598
632.581,12.499
632.850,12.391
633.119,12.288
633.389,12.203
633.658,12.148
633.928,12.124
634.197,12.112
634.466,12.090
634.735,12.056
635.004,12.002
635.274,11.933
635.543,11.847
635.812,11.764
636.081,11.686
636.350,11.617
636.619,11.544
636.888,11.466
637.157,11.384
637.426,11.316
637.694,11.258
637.963,11.207
638.232,11.166
638.501,11.124
638.769,11.084
639.038,11.027
639.307,10.972
639.575,10.905
639.844,10.818
640.112,10.725
640.381,10.634
640.649,10.565
640.917,10.509
641.186,10.454
641.454,10.403
641.722,10.343
641.991,10.286
642.259,10.215
642.527,10.147
642.795,10.087
643.063,10.024
643.331,9.967
643.599,9.915
643.867,9.889
644.135,9.855
644.403,9.820
644.671,9.762
644.939,9.711
645.206,9.654
645.474,9.607
645.742,9.551
646.009,9.483
646.277,9.418
646.545,9.358
646.812,9.320
647.080,9.278
647.347,9.226
647.615,9.157
647.882,9.072
648.149,8.991
648.417,8.913
648.684,8.850
648.951,8.800
649.219,8.759
649.486,8.714
649.753,8.666
650.020,8.601
650.287,8.542
650.554,8.473
650.821,8.406
651.088,8.327
651.355,8.271
651.622,8.212
651.889,8.171
652.155,8.121
652.422,8.083
652.689,8.043
652.956,7.994
653.222,7.942
653.489,7.904
653.755,7.850
654.022,7.777
654.288,7.678
654.555,7.599
654.821,7.541
655.088,7.496
655.354,7.446
655.620,7.400
655.887,7.347
656.153,7.297
656.419,7.244
656.685,7.193
656.951,7.140
657.217,7.084
657.483,7.031
657.749,6.987
658.015,6.948
658.281,6.902
658.547,6.838
658.813,6.768
659.079,6.697
659.345,6.631
659.610,6.568
659.876,6.513
660.142,6.466
660.407,6.422
660.673,6.381
660.939,6.351
661.204,6.310
661.470,6.264
661.735,6.209
662.000,6.171
662.266,6.129
662.531,6.087
662.796,6.042
663.062,5.993
663.327,5.933
663.592,5.880
663.857,5.837
664.122,5.799
664.388,5.754
664.653,5.716
664.918,5.684
665.183,5.646
665.448,5.609
665.712,5.579
665.977,5.556
666.242,5.525
666.507,5.461
666.772,5.396
667.037,5.335
667.301,5.302
667.566,5.270
667.831,5.245
668.095,5.208
668.360,5.170
668.624,5.113
668.889,5.079
669.153,5.041
669.418,5.016
669.682,4.987
669.946,4.967
670.211,4.956
670.475,4.938
670.739,4.916
671.004,4.893
671.268,4.886
671.532,4.888
671.796,4.838
672.060,4.766
672.324,4.678
672.588,4.639
672.852,4.610
673.116,4.620
673.380,4.635
673.644,4.590
673.908,4.506
674.172,4.420
674.436,4.394
674.700,4.377
674.963,4.354
675.227,4.327
675.491,4.281
675.754,4.235
676.018,4.189
676.282,4.161
676.545,4.129
676.809,4.086
677.072,4.035
677.336,3.988
677.599,3.962
677.863,3.944
678.126,3.933
678.389,3.930
678.653,3.927
678.916,3.909
679.179,3.866
679.442,3.827
679.706,3.800
679.969,3.780
680.232,3.757
680.495,3.742
680.758,3.726
681.021,3.697
681.284,3.653
681.547,3.609
681.810,3.586
682.073,3.581
682.336,3.575
682.599,3.558
682.862,3.538
683.125,3.523
683.388,3.515
683.651,3.501
683.913,3.483
684.176,3.449
684.439,3.408
684.702,3.360
684.964,3.323
685.227,3.301
685.490,3.290
685.752,3.283
686.015,3.262
686.277,3.232
686.540,3.198
686.802,3.163
687.065,3.138
687.327,3.125
687.590,3.113
687.852,3.092
688.115,3.058
688.377,3.036
688.639,3.018
688.902,2.999
689.164,2.982
689.426,2.973
689.689,2.970
689.951,2.955
690.213,2.931
690.475,2.907
690.737,2.883
691.000,2.858
691.262,2.831
691.524,2.817
691.786,2.814
692.048,2.818
692.310,2.807
692.572,2.781
692.834,2.750
693.096,2.729
693.358,2.725
693.620,2.729
693.882,2.731
694.144,2.721
694.406,2.694
694.668,2.668
694.930,2.641
695.192,2.617
695.453,2.597
695.715,2.583
695.977,2.565
696.239,2.541
696.501,2.522
696.762,2.520
697.024,2.519
697.286,2.505
697.548,2.486
697.809,2.472
698.071,2.459
698.333,2.444
698.594,2.426
698.856,2.417
699.118,2.407
699.379,2.396
699.641,2.389
699.902,2.383
700.164,2.371
700.426,2.348
700.687,2.323
700.949,2.309
701.210,2.301
701.472,2.289
701.733,2.267
701.995,2.255
702.256,2.251
702.518,2.249
702.779,2.235
703.041,2.235
703.302,2.239
703.563,2.232
703.825,2.209
704.086,2.186
704.348,2.171
704.609,2.162
704.871,2.161
705.132,2.167
705.393,2.162
705.655,2.150
705.916,2.137
706.177,2.129
706.439,2.122
706.700,2.114
706.961,2.106
707.223,2.099
707.484,2.075
707.745,2.052
708.007,2.024
708.268,2.000
708.529,1.976
708.790,1.951
709.052,1.932
709.313,1.922
709.574,1.920
709.835,1.918
710.097,1.906
710.358,1.882
710.619,1.856
710.881,1.834
711.142,1.817
711.403,1.800
711.664,1.787
711.926,1.770
712.187,1.764
712.448,1.761
712.709,1.767
712.970,1.770
713.232,1.773
713.493,1.773
713.754,1.769
714.015,1.767
714.277,1.770
714.538,1.774
714.799,1.782
715.060,1.780
715.322,1.772
715.583,1.752
715.844,1.735
716.105,1.719
716.367,1.706
716.628,1.699
716.889,1.690
717.150,1.674
717.411,1.650
717.673,1.636
717.934,1.632
718.195,1.634
718.457,1.623
718.718,1.605
718.979,1.593
719.240,1.593
719.502,1.601
719.763,1.607
720.024,1.607
720.286,1.602
720.547,1.587
720.808,1.571
721.069,1.560
721.331,1.565
721.592,1.580
721.853,1.589
722.115,1.589
722.376,1.583
722.638,1.573
722.899,1.563
723.160,1.546
723.422,1.529
723.683,1.516
723.944,1.519
724.206,1.527
724.467,1.529
724.729,1.523
724.990,1.524
725.252,1.532
725.513,1.523
725.775,1.503
726.036,1.483
726.298,1.480
726.559,1.485
726.821,1.485
727.082,1.483
727.344,1.477
727.605,1.477
727.867,1.473
728.128,1.474
728.390,1.475
728.652,1.488
728.913,1.507
729.175,1.521
729.436,1.522
729.698,1.524
729.960,1.519
730.221,1.510
730.483,1.479
730.745,1.464
731.007,1.460
731.268,1.466
731.530,1.469
731.792,1.471
732.054,1.477
732.315,1.485
732.577,1.486
732.839,1.477
733.101,1.462
733.363,1.452
733.625,1.448
733.887,1.451
734.149,1.452
734.411,1.456
734.673,1.462
734.935,1.466
735.197,1.465
735.459,1.467
735.721,1.465
735.983,1.456
736.245,1.439
736.507,1.436
736.769,1.447
737.031,1.460
737.293,1.458
737.555,1.446
737.818,1.432
738.080,1.422
738.342,1.421
738.604,1.421
738.867,1.426
739.129,1.426
739.391,1.425
739.654,1.427
739.916,1.431
740.178,1.437
740.441,1.445
740.703,1.447
740.966,1.440
741.228,1.430
741.491,1.422
741.753,1.425
742.016,1.428
742.278,1.433
742.541,1.437
742.804,1.444
743.066,1.454
743.329,1.459
743.592,1.456
743.854,1.454
744.117,1.461
744.380,1.468
744.643,1.464
744.905,1.449
745.168,1.439
745.431,1.432
745.694,1.429
745.957,1.423
746.220,1.421
746.483,1.418
746.746,1.420
747.009,1.430
747.272,1.448
747.535,1.463
747.798,1.464
748.061,1.449
748.324,1.432
748.588,1.420
748.851,1.417
749.114,1.417
749.377,1.422
749.641,1.425
749.904,1.431
750.167,1.439
750.431,1.447
750.694,1.452
750.958,1.454
751.221,1.445
751.485,1.425
751.748,1.411
752.012,1.415
752.275,1.435
752.539,1.444
752.803,1.442
753.066,1.429
753.330,1.418
753.594,1.411
753.857,1.411
754.121,1.418
754.385,1.425
754.649,1.433
754.913,1.439
755.177,1.445
755.441,1.440
755.705,1.425
755.969,1.409
756.233,1.410
756.497,1.417
756.761,1.418
757.025,1.408
757.289,1.404
757.553,1.406
757.818,1.416
758.082,1.420
758.346,1.421
758.610,1.422
758.875,1.419
759.139,1.415
759.404,1.407
759.668,1.400
759.932,1.401
760.197,1.408
760.462,1.410
760.726,1.407
760.991,1.404
761.255,1.405
761.520,1.408
761.785,1.402
762.049,1.389
762.314,1.377
762.579,1.378
762.844,1.392
763.109,1.402
763.374,1.402
763.639,1.396
763.903,1.390
764.168,1.383
764.433,1.382
764.699,1.391
764.964,1.400
765.229,1.398
765.494,1.386
765.759,1.378
766.024,1.377
766.290,1.386
766.555,1.396
766.820,1.401
767.086,1.405
767.351,1.404
767.616,1.403
767.882,1.397
768.147,1.391
768.413,1.382
768.678,1.375
768.944,1.377
769.209,1.388
769.475,1.399
769.741,1.408
770.006,1.414
770.272,1.417
770.538,1.414
770.804,1.405
771.070,1.398
771.335,1.399
771.601,1.411
771.867,1.420
772.133,1.418
772.399,1.404
772.665,1.385
772.931,1.380
773.197,1.386
773.464,1.401
773.730,1.412
773.996,1.412
774.262,1.407
774.528,1.395
774.795,1.393
775.061,1.401
775.327,1.411
775.594,1.408
775.860,1.394
776.126,1.371
776.393,1.352
776.659,1.340
776.926,1.334
777.193,1.339
777.459,1.346
777.726,1.350
777.992,1.349
778.259,1.342
778.526,1.347
778.793,1.353
779.059,1.361
779.326,1.368
779.593,1.374
779.860,1.382
780.127,1.381
780.394,1.378
780.661,1.373
780.928,1.363
781.195,1.353
781.462,1.343
781.729,1.345
781.996,1.350
782.263,1.356
782.530,1.368
782.797,1.375
783.064,1.371
783.332,1.359
783.599,1.349
783.866,1.349
784.134,1.346
784.401,1.345
784.668,1.346
784.936,1.350
785.203,1.347
785.470,1.336
785.738,1.330
786.005,1.327
786.273,1.326
786.541,1.323
786.808,1.321
787.076,1.323
787.343,1.327
787.611,1.337
787.879,1.348
788.146,1.351
788.414,1.356
788.682,1.354
788.950,1.353
789.217,1.352
789.485,1.363
789.753,1.374
790.021,1.367
790.289,1.344
790.557,1.320
790.825,1.311
791.093,1.320
791.361,1.342
791.629,1.361
791.897,1.370
792.165,1.368
792.433,1.354
792.701,1.332
792.969,1.309
793.237,1.300
793.505,1.313
793.773,1.329
794.042,1.333
794.310,1.327
794.578,1.323
794.846,1.322
795.115,1.321
795.383,1.322
795.651,1.333
795.920,1.340
796.188,1.343
796.456,1.344
796.725,1.347
796.993,1.357
797.261,1.363
797.530,1.362
797.798,1.352
798.067,1.348
798.335,1.353
798.604,1.352
798.872,1.337
799.141,1.322
799.409,1.321
799.678,1.331
799.946,1.340
800.215,1.341
800.483,1.336
800.752,1.332
801.020,1.327
801.289,1.326
801.558,1.327
801.826,1.332
802.095,1.329
802.363,1.325
802.632,1.324
802.901,1.332
803.169,1.340
803.438,1.339
803.707,1.327
803.976,1.313
804.244,1.312
804.513,1.317
804.782,1.314
805.050,1.309
805.319,1.311
805.588,1.324
805.857,1.335
806.125,1.338
806.394,1.338
806.663,1.329
806.931,1.316
807.200,1.304
807.469,1.304
807.738,1.305
808.006,1.308
808.275,1.314
808.544,1.332
808.813,1.347
809.082,1.347
809.350,1.337
809.619,1.328
809.888,1.321
810.157,1.312
810.425,1.305
810.694,1.306
810.963,1.313
811.232,1.311
811.500,1.301
811.769,1.291
812.038,1.293
812.306,1.303
812.575,1.317
812.844,1.324
813.113,1.325
813.381,1.316
813.650,1.318
813.919,1.327
814.187,1.341
814.456,1.349
814.725,1.350
814.993,1.344
815.262,1.338
815.531,1.334
815.799,1.334
816.068,1.325
816.336,1.312
816.605,1.307
816.873,1.312
817.142,1.325
817.411,1.336
817.679,1.339
817.948,1.346
818.216,1.358
818.485,1.394
818.753,1.420
819.021,1.400
819.290,1.349
819.558,1.312
819.827,1.317
820.095,1.338
820.363,1.348
820.632,1.348
820.900,1.345
821.168,1.346
821.437,1.350
821.705,1.354
821.973,1.355
822.241,1.357
822.509,1.354
822.777,1.345
823.046,1.339
823.314,1.341
823.582,1.348
823.850,1.351
824.118,1.351
824.386,1.345
824.654,1.326
824.922,1.305
825.190,1.294
825.457,1.307
825.725,1.322
825.993,1.327
826.261,1.322
826.529,1.321
826.796,1.323
827.064,1.321
827.332,1.316
827.599,1.320
827.867,1.336
828.134,1.342
828.402,1.332
828.669,1.316
828.937,1.310
829.204,1.327
829.471,1.352
829.739,1.368
830.006,1.368
830.273,1.354
830.540,1.336
830.807,1.316
831.075,1.310
831.342,1.317
831.609,1.326
831.876,1.335
832.142,1.340
832.409,1.342
832.676,1.333
832.943,1.318
833.210,1.308
833.476,1.306
833.743,1.313
834.010,1.318
834.276,1.312
834.543,1.302
834.809,1.303
835.076,1.312
835.342,1.319
835.608,1.329
835.874,1.336
836.141,1.335
836.407,1.326
836.673,1.314
836.939,1.311
837.205,1.310
837.471,1.312
837.737,1.314
838.002,1.313
838.268,1.313
838.534,1.314
838.799,1.316
839.065,1.324
839.330,1.330
839.596,1.334
839.861,1.337
840.127,1.340
840.392,1.342
840.657,1.342
840.922,1.346
841.187,1.353
841.452,1.356
841.717,1.356
841.982,1.347
842.247,1.331
842.511,1.319
842.776,1.318
843.041,1.324
843.305,1.318
843.570,1.309
843.834,1.301
844.098,1.300
844.362,1.303
844.627,1.301
844.891,1.299
845.155,1.304
845.419,1.315
845.682,1.323
845.946,1.328
846.210,1.331
846.474,1.333
846.737,1.337
847.001,1.333
847.264,1.321
847.527,1.309
847.790,1.303
848.054,1.304
848.317,1.299
848.580,1.296
848.843,1.299
849.105,1.315
849.368,1.333
849.631,1.346
849.893,1.351
850.156,1.357
850.418,1.356
850.680,1.339
850.943,1.320
851.205,1.316
851.467,1.318
851.729,1.317
851.991,1.316
852.252,1.327
852.514,1.338
852.776,1.342
853.037,1.344
853.298,1.340
853.560,1.330
853.821,1.313
854.082,1.297
854.343,1.298
854.604,1.316
854.865,1.346
855.126,1.364
855.386,1.375
855.647,1.373
855.907,1.365
856.168,1.349
856.428,1.334
856.688,1.325
856.948,1.306
857.208,1.288
857.468,1.286
857.727,1.298
857.987,1.311
858.247,1.315
858.506,1.324
858.765,1.328
859.024,1.320
859.284,1.306
859.543,1.294
859.801,1.288
860.060,1.291
860.319,1.308
860.577,1.328
860.836,1.340
861.094,1.346
861.352,1.345
861.611,1.336
861.869,1.317
862.127,1.306
862.384,1.307
862.642,1.312
862.900,1.326
863.157,1.336
863.414,1.333
863.672,1.316
863.929,1.295
864.186,1.292
864.443,1.302
864.699,1.313
864.956,1.317
865.212,1.305
865.469,1.300
865.725,1.307
865.981,1.324
866.237,1.333
866.493,1.333
866.749,1.319
867.005,1.309
867.260,1.296
867.516,1.290
867.771,1.284
868.026,1.289
868.282,1.304
868.536,1.316
868.791,1.312
869.046,1.299
869.301,1.289
869.555,1.291
869.809,1.303
870.064,1.315
870.318,1.329
870.572,1.335
870.826,1.324
871.079,1.307
871.333,1.295
871.586,1.299
871.840,1.301
872.093,1.303
872.346,1.312
872.599,1.335
872.852,1.358
873.105,1.368
873.357,1.357
873.610,1.338
873.862,1.332
874.114,1.338
874.366,1.343
874.618,1.336
874.870,1.314
875.121,1.295
875.373,1.288
875.624,1.296
875.876,1.303
876.127,1.306
876.378,1.306
876.629,1.306
876.879,1.308
877.130,1.310
877.381,1.303
877.631,1.288
877.881,1.278
878.131,1.287
878.381,1.310
878.631,1.337
878.881,1.349
879.130,1.348
879.380,1.333
879.629,1.320
879.878,1.309
880.127,1.305
880.376,1.308
880.625,1.320
880.873,1.333
881.122,1.343
881.370,1.343
881.618,1.331
881.866,1.318
882.114,1.305
882.362,1.303
882.610,1.308
882.857,1.316
883.105,1.316
883.352,1.303
883.599,1.293
883.846,1.288
884.093,1.289
884.340,1.298
884.586,1.314
884.833,1.326
885.079,1.330
885.325,1.323
885.571,1.317
885.817,1.314
886.063,1.319
886.309,1.323
886.554,1.331
886.800,1.337
887.045,1.340
887.290,1.329
887.535,1.312
887.780,1.307
888.025,1.316
888.270,1.337
888.514,1.354
888.758,1.356
889.003,1.345
889.247,1.322
889.491,1.316
889.735,1.324
889.978,1.341
890.222,1.343
890.465,1.335
890.709,1.322
890.952,1.309
891.195,1.300
891.438,1.297
891.681,1.292
891.923,1.290
892.166,1.292
892.408,1.295
892.651,1.292
892.893,1.288
893.135,1.290
893.377,1.295
893.619,1.301
893.861,1.306
894.102,1.313
894.344,1.327
894.585,1.347
894.826,1.359
895.067,1.351
895.308,1.335
895.549,1.317
895.790,1.306
896.031,1.294
896.271,1.297
896.512,1.312
896.752,1.325
896.992,1.323
897.232,1.311
897.472,1.303
897.712,1.314
897.952,1.332
898.191,1.339
898.431,1.336
898.670,1.340
898.910,1.350
899.149,1.362
899.388,1.364
899.627,1.360
899.866,1.351
900.105,1.337
900.343,1.330
900.582,1.329
900.820,1.338
901.059,1.351
901.297,1.355
901.535,1.340
901.773,1.316
902.011,1.296
902.249,1.283
902.487,1.278
902.725,1.279
902.963,1.290
903.200,1.291
903.438,1.292
903.675,1.295
903.912,1.307
904.150,1.324
904.387,1.329
904.624,1.320
904.861,1.302
905.098,1.291
905.334,1.293
905.571,1.292
905.808,1.297
906.045,1.309
906.281,1.323
906.518,1.327
906.754,1.327
906.990,1.326
907.227,1.321
907.463,1.308
907.699,1.300
907.935,1.310
908.171,1.323
908.407,1.325
908.643,1.320
908.879,1.316
909.115,1.325
909.350,1.331
909.586,1.333
909.822,1.334
910.057,1.347
910.293,1.372
910.528,1.388
910.764,1.385
910.999,1.377
911.235,1.364
911.470,1.362
911.706,1.352
911.941,1.346
912.176,1.331
912.412,1.319
912.647,1.317
912.882,1.326
913.117,1.330
913.352,1.326
913.588,1.312
913.823,1.303
914.058,1.302
914.293,1.305
914.528,1.302
914.763,1.298
914.999,1.294
915.234,1.296
915.469,1.299
915.704,1.298
915.939,1.294
916.174,1.288
916.409,1.292
916.645,1.308
916.880,1.323
917.115,1.331
917.350,1.326
917.586,1.320
917.821,1.321
918.056,1.334
918.292,1.348
918.527,1.349
918.763,1.333
918.998,1.319
919.234,1.325
919.469,1.343
919.705,1.353
919.940,1.346
920.176,1.334
920.412,1.334
920.648,1.333
920.884,1.330
921.120,1.321
921.356,1.315
921.592,1.312
921.828,1.311
922.065,1.316
922.301,1.327
922.537,1.344
922.774,1.350
923.011,1.339
923.247,1.320
923.484,1.318
923.721,1.330
923.958,1.341
924.195,1.337
924.433,1.327
924.670,1.311
924.908,1.297
925.145,1.294
925.383,1.305
925.621,1.313
925.859,1.317
926.097,1.319
926.335,1.323
926.574,1.331
926.813,1.336
927.051,1.338
927.290,1.335
927.529,1.347
927.769,1.369
928.008,1.380
928.248,1.360
928.487,1.336
928.727,1.324
928.967,1.337
929.208,1.347
929.448,1.349
929.689,1.337
929.930,1.318
930.171,1.300
930.413,1.295
930.654,1.299
930.896,1.300
931.138,1.295
931.380,1.286
931.623,1.287
931.865,1.296
932.108,1.311
932.352,1.325
932.595,1.335
932.839,1.340
933.083,1.335
933.327,1.324
933.571,1.310
933.816,1.311
934.061,1.319
934.307,1.323
934.552,1.313
934.798,1.307
935.045,1.311
935.291,1.317
935.538,1.319
935.785,1.324
936.033,1.332
936.281,1.340
936.529,1.340
936.777,1.333
937.026,1.320
937.275,1.309
937.525,1.303
937.775,1.300
938.025,1.300
938.276,1.300
938.527,1.299
938.778,1.297
939.030,1.294
939.282,1.292
939.535,1.294
939.788,1.303
940.041,1.304
940.295,1.299
940.550,1.298
940.804,1.308
941.059,1.321
941.315,1.318
941.571,1.306
941.828,1.296
942.085,1.297
942.342,1.304
942.600,1.306
942.858,1.303
943.117,1.295
943.377,1.287
943.636,1.281
943.897,1.279
944.158,1.284
944.419,1.296
944.681,1.303
944.944,1.308
945.207,1.313
945.470,1.319
945.734,1.326
945.999,1.338
946.264,1.353
946.530,1.361
946.797,1.358
947.064,1.350
947.331,1.340
947.600,1.326
947.869,1.312
948.138,1.301
948.408,1.294
948.679,1.293
948.950,1.296
949.222,1.292
949.495,1.285
949.768,1.286
950.043,1.304
