Intensity BB7.3,,C:\Users\Brend\Desktop\LED Spectras v2\Blinds\-Interference\Spectrometer Data.sp,,,BB7.3,
1.605,,2018-07-12 09:38:07,,Integration Time,100 ms,
1.600,,Analyze Light,,Number of Scans to Average,25,
1.602,,,,Smoothing,0,
1.618
1.634
1.641
1.645
1.640
1.624
1.640
1.646
1.642
1.644
1.656
1.664
1.661
1.642
1.638
1.639
1.658
1.675
1.687
1.689
1.680
1.685
1.683
1.681
1.687
1.695
1.713
1.723
1.735
1.723
1.714
1.698
1.706
1.705
1.699
1.705
1.716
1.710
1.712
1.721
1.735
1.734
1.735
1.740
1.752
1.757
1.754
1.756
1.748
1.750
1.761
1.752
1.744
1.756
1.769
1.776
1.776
1.785
1.790
1.795
1.792
1.790
1.791
1.794
1.805
1.801
1.803
1.813
1.819
1.811
1.818
1.832
1.847
1.857
1.857
1.849
1.845
1.847
1.849
1.858
1.844
1.841
1.868
1.888
1.907
1.888
1.878
1.870
1.864
1.864
1.865
1.875
1.877
1.883
1.892
1.894
1.905
1.911
1.914
1.895
1.902
1.897
1.900
1.916
1.943
1.931
1.919
1.930
1.938
1.937
1.936
1.948
1.935
1.917
1.932
1.945
1.947
1.950
1.958
1.933
1.957
1.970
1.960
1.961
1.979
1.980
1.989
1.997
2.004
1.999
1.999
2.002
2.021
2.015
2.011
2.002
2.000
2.001
2.010
2.007
2.009
2.013
2.013
2.005
1.997
2.006
2.019
2.024
2.029
2.019
2.019
2.022
2.041
2.039
2.043
2.042
2.042
2.045
2.039
2.037
2.042
2.033
2.028
2.029
2.037
2.028
2.035
2.041
2.047
2.057
2.068
2.060
2.047
2.053
2.056
2.055
2.059
2.058
2.054
2.056
2.081
2.090
2.120
2.127
2.112
2.113
2.110
2.129
2.155
2.160
2.162
2.169
2.192
2.202
2.228
2.259
2.282
2.308
2.339
2.352
2.371
2.406
2.424
2.445
2.491
2.532
2.574
2.610
2.672
2.739
2.800
2.842
2.913
2.968
3.030
3.113
3.181
3.273
3.387
3.482
3.595
3.688
3.784
3.874
3.999
4.109
4.249
4.374
4.533
4.706
4.868
5.020
5.200
5.364
5.551
5.743
5.971
6.161
6.391
6.613
6.865
7.101
7.374
7.630
7.928
8.197
8.506
8.798
9.114
9.453
9.821
10.176
10.558
10.948
11.397
11.839
12.322
12.814
13.298
13.823
14.416
14.975
15.592
16.206
16.877
17.556
18.252
18.999
19.791
20.631
21.453
22.324
23.228
24.162
25.116
26.069
27.139
28.189
29.279
30.404
31.519
32.605
33.729
34.853
36.032
37.168
38.328
39.483
40.618
41.733
42.872
43.946
44.982
45.979
46.898
47.770
48.599
49.291
49.979
50.580
51.069
51.503
51.855
52.100
52.320
52.450
52.468
52.399
52.235
51.962
51.651
51.223
50.735
50.216
49.593
48.938
48.175
47.389
46.520
45.688
44.754
43.835
42.873
41.862
40.892
39.895
38.933
38.017
37.104
36.215
35.289
34.383
33.523
32.705
31.892
31.086
30.371
29.694
29.047
28.443
27.831
27.306
26.813
26.303
25.859
25.450
25.000
24.538
24.141
23.753
23.367
23.014
22.666
22.323
21.974
21.574
21.192
20.850
20.492
20.122
19.776
19.412
19.078
18.760
18.425
18.046
17.695
17.314
16.955
16.595
16.256
15.897
15.513
15.132
14.788
14.420
14.043
13.655
13.332
12.979
12.650
12.269
11.931
11.601
11.296
10.956
10.635
10.331
10.073
9.804
9.551
9.255
9.033
8.800
8.586
8.358
8.145
7.919
7.715
7.510
7.347
7.154
6.999
6.824
6.702
6.532
6.385
6.220
6.068
5.898
5.756
5.632
5.527
5.404
5.301
5.183
5.083
4.955
4.848
4.682
4.570
4.471
4.380
4.274
4.194
4.100
4.022
3.916
3.847
3.735
3.660
3.563
3.490
3.384
3.308
3.243
3.162
3.062
3.015
2.959
2.887
2.826
2.768
2.712
2.673
2.606
2.551
2.517
2.481
2.426
2.366
2.323
2.303
2.276
2.252
2.217
2.195
2.154
2.130
2.098
2.057
2.028
2.017
2.001
2.000
1.973
1.939
1.919
1.926
1.922
1.881
1.864
1.863
1.839
1.817
1.816
1.828
1.811
1.792
1.771
1.759
1.740
1.726
1.702
1.682
1.678
1.678
1.684
1.676
1.656
1.654
1.646
1.647
1.624
1.610
1.606
1.611
1.626
1.622
1.619
1.619
1.612
1.610
1.615
1.625
1.603
1.575
1.572
1.564
1.543
1.541
1.532
1.548
1.559
1.548
1.517
1.516
1.528
1.536
1.517
1.504
1.496
1.490
1.484
1.490
1.495
1.497
1.496
1.491
1.477
1.458
1.465
1.463
1.453
1.452
1.445
1.446
1.442
1.449
1.438
1.438
1.445
1.432
1.418
1.442
1.444
1.424
1.420
1.422
1.412
1.414
1.420
1.426
1.430
1.434
1.430
1.429
1.422
1.417
1.407
1.391
1.383
1.391
1.396
1.411
1.410
1.400
1.410
1.427
1.421
1.403
1.384
1.378
1.375
1.382
1.386
1.378
1.372
1.384
1.390
1.394
1.406
1.410
1.393
1.387
1.392
1.380
1.378
1.368
1.365
1.382
1.391
1.381
1.372
1.357
1.357
1.369
1.379
1.378
1.363
1.377
1.368
1.374
1.385
1.383
1.389
1.397
1.392
1.382
1.364
1.349
1.352
1.367
1.372
1.362
1.359
1.359
1.359
1.369
1.373
1.356
1.332
1.348
1.362
1.368
1.365
1.367
1.361
1.361
1.352
1.349
1.339
1.347
1.365
1.378
1.373
1.371
1.375
1.377
1.372
1.356
1.326
1.336
1.353
1.364
1.350
1.346
1.342
1.347
1.346
1.339
1.341
1.362
1.373
1.377
1.358
1.352
1.347
1.338
1.348
1.349
1.339
1.349
1.372
1.380
1.371
1.355
1.346
1.344
1.348
1.362
1.364
1.359
1.364
1.377
1.374
1.364
1.366
1.362
1.357
1.352
1.352
1.356
1.348
1.339
1.343
1.343
1.341
1.344
1.339
1.346
1.354
1.351
1.340
1.343
1.356
1.348
1.340
1.341
1.337
1.335
1.344
1.352
1.361
1.371
1.371
1.362
1.356
1.364
1.354
1.337
1.339
1.360
1.370
1.363
1.346
1.354
1.365
1.345
1.328
1.339
1.337
1.336
1.347
1.362
1.365
1.351
1.355
1.342
1.346
1.336
1.321
1.330
1.338
1.344
1.350
1.346
1.346
1.356
1.341
1.330
1.332
1.351
1.353
1.332
1.326
1.319
1.320
1.337
1.358
1.350
1.340
1.333
1.333
1.328
1.331
1.347
1.351
1.348
1.343
1.332
1.312
1.310
1.318
1.314
1.320
1.340
1.352
1.358
1.342
1.326
1.321
1.328
1.328
1.331
1.314
1.314
1.316
1.322
1.320
1.320
1.319
1.323
1.336
1.336
1.331
1.329
1.326
1.317
1.319
1.335
1.350
1.356
1.352
1.342
1.340
1.326
1.326
1.335
1.340
1.357
1.344
1.324
1.317
1.312
1.315
1.322
1.339
1.344
1.352
1.354
1.341
1.331
1.329
1.320
1.316
1.326
1.334
1.326
1.315
1.315
1.308
1.316
1.331
1.326
1.320
1.317
1.328
1.345
1.356
1.357
1.349
1.338
1.326
1.324
1.318
1.321
1.325
1.326
1.331
1.328
1.329
1.308
1.303
1.314
1.302
1.292
1.301
1.303
1.300
1.307
1.311
1.304
1.299
1.308
1.326
1.343
1.339
1.338
1.332
1.328
1.336
1.341
1.345
1.347
1.341
1.328
1.336
1.338
1.329
1.325
1.331
1.326
1.329
1.326
1.322
1.322
1.322
1.325
1.320
1.319
1.310
1.309
1.322
1.330
1.320
1.310
1.312
1.320
1.335
1.333
1.326
1.335
1.338
1.334
1.332
1.322
1.313
1.325
1.340
1.335
1.324
1.325
1.324
1.326
1.321
1.317
1.327
1.336
1.342
1.349
1.363
1.369
1.342
1.332
1.345
1.345
1.329
1.326
1.337
1.339
1.323
1.318
1.319
1.326
1.333
1.342
1.340
1.337
1.330
1.316
1.320
1.341
1.334
1.327
1.318
1.321
1.315
1.313
1.310
1.320
1.328
1.328
1.320
1.322
1.325
1.325
1.314
1.317
1.328
1.324
1.313
1.310
1.296
1.295
1.288
1.275
1.274
1.302
1.322
1.322
1.319
1.327
1.318
1.310
1.306
1.308
1.317
1.323
1.329
1.333
1.310
1.313
1.311
1.307
1.304
1.310
1.312
1.316
1.326
1.327
1.326
1.321
1.319
1.309
1.324
1.334
1.342
1.340
1.324
1.319
1.307
1.309
1.318
1.318
1.320
1.315
1.315
1.310
1.308
1.310
1.297
1.304
1.308
1.308
1.314
1.324
1.326
1.332
1.336
1.327
1.315
1.302
1.309
1.314
1.325
1.331
1.327
1.316
1.303
1.297
1.300
1.301
1.316
1.314
1.308
1.303
1.298
1.304
1.302
1.293
1.301
1.317
1.307
1.310
1.311
1.314
1.320
1.321
1.339
1.358
1.336
1.319
1.309
1.311
1.310
1.326
1.331
1.337
1.341
1.339
1.335
1.337
1.332
1.322
1.316
1.315
1.321
1.325
1.313
1.312
1.304
1.299
1.307
1.312
1.308
1.300
1.304
1.303
1.296
1.289
1.294
1.303
1.298
1.304
1.303
1.297
1.296
1.306
1.306
1.303
1.299
1.307
1.310
1.305
1.316
1.322
1.326
1.317
1.295
1.293
1.295
1.295
1.306
1.312
1.311
1.312
1.306
1.320
1.313
1.311
1.314
1.318
1.326
1.326
1.332
1.347
1.385
1.389
1.338
1.337
1.346
1.349
1.363
1.415
1.410
1.321
1.316
1.319
1.325
1.328
1.325
1.320
1.308
1.307
1.312
1.326
1.315
1.305
1.302
1.305
1.315
1.304
1.305
1.327
1.323
1.309
1.300
1.310
1.323
1.317
1.322
1.331
1.328
1.316
1.306
1.312
1.326
1.334
1.326
1.318
1.322
1.326
1.329
1.323
1.318
1.303
1.295
1.287
1.288
1.298
1.313
1.328
1.314
1.307
1.312
1.310
1.315
1.314
1.307
1.297
1.290
1.298
1.298
1.299
1.312
1.326
1.322
1.317
1.314
1.309
1.301
1.300
1.312
1.320
1.327
1.333
1.314
1.294
1.287
1.295
1.318
1.327
1.328
1.323
1.313
1.313
1.309
1.311
1.320
1.311
1.298
1.292
1.295
1.310
1.309
1.301
1.304
1.307
1.294
1.293
1.296
1.307
1.309
1.309
1.315
1.317
1.301
1.301
1.300
1.300
1.306
1.302
1.298
1.306
1.298
1.296
1.303
1.321
1.322
1.306
1.297
1.291
1.291
1.307
1.323
1.326
1.302
1.302
1.306
1.306
1.308
1.304
1.306
1.307
1.281
1.275
1.277
1.266
1.251
1.239
1.237
1.250
1.251
1.252
1.244
1.237
1.224
1.222
1.218
1.218
1.219
1.211
1.222
1.227
1.231
1.240
1.236
1.240
1.231
1.240
1.252
1.263
1.268
1.264
1.251
1.245
1.234
1.226
1.234
1.236
1.230
1.219
1.219
1.236
1.242
1.237
1.222
1.211
1.214
1.224
1.232
1.237
1.237
1.244
1.237
1.236
1.241
1.241
1.251
1.250
1.248
1.251
1.241
1.236
1.228
1.227
1.225
1.231
1.224
1.228
1.230
1.237
1.235
1.218
1.207
1.217
1.224
1.224
1.228
1.228
1.224
1.227
1.230
1.233
1.232
1.246
1.258
1.244
1.249
1.261
1.249
1.235
1.229
1.239
1.236
1.231
1.230
1.233
1.234
1.236
1.228
1.219
1.222
1.227
1.228
1.233
1.232
1.243
1.249
1.245
1.239
1.246
1.240
1.224
1.216
1.226
1.233
1.232
1.224
1.220
1.219
1.214
1.215
1.211
1.213
1.210
1.210
1.220
1.226
1.235
1.239
1.238
1.229
1.230
1.225
1.233
1.233
1.219
1.220
1.224
1.233
1.241
1.235
1.242
1.251
1.236
1.228
1.223
1.224
1.217
1.217
1.216
1.208
1.206
1.209
1.230
1.252
1.249
1.233
1.224
1.212
1.214
1.220
1.226
1.234
1.240
1.239
1.247
1.242
1.241
1.242
1.227
1.218
1.225
1.238
1.247
1.238
1.230
1.222
1.215
1.215
1.227
1.242
1.249
1.241
1.241
1.244
1.230
1.217
1.220
1.226
1.238
1.222
1.219
1.222
1.228
1.233
1.240
1.235
1.240
1.236
1.227
1.220
1.220
1.235
1.241
1.238
1.232
1.232
1.229
1.225
1.217
1.211
1.214
1.231
1.241
1.228
1.221
1.227
1.225
1.219
1.224
1.244
1.241
1.225
1.229
1.230
1.235
1.238
1.242
1.241
1.242
1.238
1.236
1.232
1.238
1.225
1.224
1.229
1.232
1.236
1.242
1.249
1.257
1.253
1.238
1.245
1.258
1.259
1.252
1.251
1.240
1.227
1.240
1.249
1.249
1.252
1.255
1.258
1.254
1.263
1.271
1.257
1.244
1.237
1.225
1.212
1.216
1.215
1.224
1.225
1.212
1.216
1.211
1.215
1.222
1.233
1.244
1.245
1.251
1.241
1.238
1.242
1.231
1.231
1.235
1.234
1.228
1.232
1.248
1.241
1.233
1.231
1.224
1.226
1.223
1.216
1.224
1.221
1.206
1.206
1.213
1.206
1.210
1.214
1.220
1.220
1.226
1.235
1.237
1.233
1.238
1.228
1.231
1.233
1.248
1.249
1.225
1.218
1.220
1.223
1.234
1.241
1.246
1.247
1.238
1.230
1.213
1.210
1.219
1.239
1.235
1.219
1.216
1.222
1.222
1.221
1.232
1.244
1.239
1.232
1.242
1.237
1.243
1.241
1.228
1.229
1.244
1.245
1.226
1.219
1.224
1.227
1.239
1.241
1.227
1.223
1.230
1.230
1.231
1.238
1.227
1.216
1.228
1.230
1.241
1.239
1.224
1.213
1.211
1.211
1.207
1.199
1.211
1.226
1.240
1.244
1.231
1.221
1.213
1.208
1.209
1.208
1.204
1.206
1.222
1.232
1.239
1.233
1.230
1.236
1.223
1.216
1.215
1.216
1.221
1.215
1.208
1.211
1.228
1.233
1.238
1.240
1.235
1.220
1.238
1.241
1.239
1.242
1.241
1.228
1.239
1.239
1.229
1.217
1.213
1.217
1.229
1.240
1.234
1.230
1.248
1.271
1.306
1.299
1.238
1.218
1.233
1.233
1.234
1.231
1.227
1.230
1.237
1.240
1.237
1.247
1.243
1.241
1.237
1.243
1.251
1.247
1.240
1.245
1.237
1.217
1.219
1.219
1.228
1.233
1.220
1.217
1.229
1.232
1.231
1.238
1.242
1.247
1.243
1.224
1.227
1.231
1.245
1.259
1.260
1.249
1.241
1.230
1.218
1.233
1.242
1.236
1.248
1.249
1.239
1.231
1.224
1.219
1.224
1.229
1.221
1.211
1.221
1.233
1.231
1.228
1.252
1.244
1.234
1.235
1.222
1.219
1.222
1.218
1.222
1.222
1.223
1.231
1.230
1.237
1.240
1.242
1.242
1.246
1.243
1.247
1.258
1.256
1.247
1.255
1.231
1.216
1.228
1.238
1.235
1.229
1.229
1.222
1.222
1.226
1.220
1.222
1.232
1.238
1.240
1.244
1.242
1.236
1.243
1.225
1.206
1.218
1.219
1.210
1.209
1.215
1.222
1.245
1.254
1.247
1.262
1.265
1.247
1.227
1.234
1.232
1.230
1.230
1.238
1.243
1.245
1.242
1.252
1.238
1.225
1.221
1.218
1.233
1.259
1.268
1.268
1.275
1.263
1.248
1.244
1.243
1.236
1.215
1.217
1.231
1.232
1.225
1.236
1.248
1.227
1.208
1.211
1.212
1.220
1.231
1.244
1.245
1.244
1.245
1.239
1.230
1.225
1.237
1.246
1.243
1.262
1.262
1.239
1.229
1.227
1.227
1.238
1.239
1.233
1.226
1.229
1.238
1.242
1.239
1.235
1.220
1.219
1.214
1.214
1.220
1.225
1.240
1.239
1.220
1.219
1.219
1.232
1.244
1.242
1.249
1.247
1.223
1.223
1.228
1.230
1.229
1.235
1.242
1.255
1.268
1.255
1.235
1.229
1.240
1.248
1.253
1.243
1.220
1.221
1.230
1.231
1.227
1.231
1.229
1.227
1.235
1.236
1.216
1.208
1.222
1.235
1.253
1.263
1.250
1.247
1.240
1.231
1.224
1.228
1.234
1.248
1.247
1.244
1.241
1.229
1.220
1.224
1.233
1.244
1.238
1.236
1.227
1.220
1.217
1.218
1.233
1.241
1.233
1.237
1.233
1.229
1.233
1.240
1.242
1.253
1.259
1.247
1.227
1.226
1.237
1.248
1.255
1.258
1.251
1.241
1.224
1.242
1.253
1.245
1.235
1.230
1.226
1.222
1.227
1.221
1.209
1.216
1.221
1.222
1.214
1.223
1.226
1.229
1.228
1.239
1.242
1.257
1.267
1.256
1.236
1.228
1.216
1.211
1.218
1.238
1.251
1.249
1.241
1.227
1.232
1.253
1.255
1.239
1.240
1.258
1.254
1.267
1.268
1.256
1.246
1.242
1.239
1.242
1.243
1.257
1.253
1.224
1.213
1.213
1.209
1.221
1.240
1.240
1.227
1.228
1.231
1.236
1.254
1.244
1.224
1.221
1.215
1.219
1.219
1.230
1.242
1.242
1.229
1.251
1.252
1.239
1.230
1.235
1.243
1.246
1.241
1.239
1.242
1.256
1.253
1.248
1.253
1.267
1.283
1.270
1.263
1.274
1.259
1.255
1.250
1.247
1.240
1.229
1.238
1.241
1.237
1.231
1.227
1.227
1.224
1.226
1.222
1.224
1.226
1.229
1.233
1.229
1.219
1.223
1.239
1.250
1.252
1.254
1.246
1.242
1.247
1.257
1.252
1.238
1.229
1.234
1.257
1.262
1.247
1.242
1.243
1.247
1.244
1.233
1.234
1.232
1.227
1.228
1.236
1.249
1.256
1.253
1.235
1.237
1.252
1.257
1.252
1.246
1.238
1.225
1.215
1.228
1.236
1.233
1.244
1.246
1.242
1.243
1.248
1.248
1.250
1.270
1.277
1.262
1.238
1.234
1.246
1.260
1.256
1.248
1.240
1.230
1.225
1.235
1.229
1.219
1.219
1.221
1.236
1.247
1.247
1.252
1.260
1.250
1.242
1.242
1.233
1.240
1.246
1.231
1.222
1.239
1.239
1.241
1.242
1.244
1.248
1.254
1.247
1.237
1.233
1.236
1.226
1.223
1.225
1.223
1.229
1.225
1.222
1.223
1.232
1.232
1.225
1.223
1.235
1.252
1.247
1.221
1.220
1.231
1.227
1.235
1.229
1.219
1.221
1.222
1.215
1.223
1.231
1.228
1.228
1.234
1.240
1.244
1.245
1.262
1.265
1.254
1.247
1.245
1.246
1.232
1.224
1.216
1.212
1.224
1.226
1.214
1.212
1.227
