Wavelength (nm),Intensity ββ10.2,,C:\Users\Brend\Desktop\LED Spectras v2\Blinds\-Interference\Spectrometer Data (Alt).sp,,,ββ10.2,
379.792,1.411,,2018-07-11 15:07:17,,Integration Time,100 ms,
380.000,1.409,,Analyze Light,,Number of Scans to Average,25,
380.209,1.406,,,,Smoothing,1,
380.418,1.410
380.627,1.415
380.837,1.420
381.048,1.422
381.259,1.423
381.471,1.426
381.683,1.429
381.896,1.431
382.110,1.432
382.324,1.436
382.538,1.444
382.753,1.446
382.969,1.441
383.185,1.434
383.402,1.434
383.619,1.441
383.837,1.449
384.055,1.459
384.274,1.465
384.493,1.469
384.712,1.473
384.932,1.477
385.153,1.480
385.374,1.477
385.596,1.479
385.818,1.490
386.040,1.504
386.263,1.515
386.487,1.518
386.710,1.519
386.935,1.512
387.159,1.503
387.385,1.493
387.610,1.489
387.836,1.490
388.063,1.491
388.289,1.493
388.517,1.494
388.744,1.497
388.972,1.509
389.201,1.520
389.430,1.529
389.659,1.534
389.889,1.538
390.119,1.544
390.349,1.548
390.580,1.555
390.811,1.558
391.042,1.562
391.274,1.566
391.507,1.566
391.739,1.561
391.972,1.556
392.205,1.563
392.439,1.575
392.673,1.581
392.907,1.583
393.142,1.590
393.377,1.597
393.612,1.604
393.848,1.606
394.084,1.609
394.320,1.609
394.557,1.612
394.794,1.613
395.031,1.615
395.269,1.620
395.507,1.630
395.745,1.637
395.983,1.640
396.222,1.642
396.461,1.650
396.700,1.659
396.940,1.661
397.180,1.655
397.420,1.646
397.660,1.641
397.901,1.641
398.142,1.647
398.383,1.648
398.625,1.645
398.866,1.646
399.108,1.661
399.351,1.684
399.593,1.695
399.836,1.695
400.079,1.685
400.322,1.676
400.566,1.666
400.809,1.659
401.053,1.657
401.298,1.659
401.542,1.664
401.787,1.671
402.031,1.680
402.277,1.690
402.522,1.697
402.767,1.704
403.013,1.702
403.259,1.701
403.505,1.699
403.752,1.697
403.998,1.695
404.245,1.702
404.492,1.716
404.739,1.726
404.986,1.732
405.234,1.735
405.482,1.734
405.730,1.727
405.978,1.720
406.226,1.716
406.475,1.716
406.723,1.716
406.972,1.721
407.221,1.728
407.470,1.735
407.720,1.736
407.969,1.729
408.219,1.736
408.469,1.746
408.719,1.761
408.969,1.765
409.219,1.767
409.470,1.770
409.720,1.774
409.971,1.776
410.222,1.779
410.473,1.780
410.724,1.782
410.976,1.784
411.227,1.791
411.479,1.794
411.731,1.797
411.983,1.795
412.235,1.792
412.487,1.790
412.740,1.792
412.992,1.797
413.245,1.799
413.497,1.798
413.750,1.797
414.003,1.795
414.257,1.793
414.510,1.788
414.763,1.792
415.017,1.800
415.270,1.810
415.524,1.813
415.778,1.812
416.032,1.810
416.286,1.814
416.540,1.819
416.794,1.823
417.049,1.823
417.303,1.825
417.558,1.828
417.812,1.830
418.067,1.830
418.322,1.827
418.577,1.823
418.832,1.819
419.088,1.816
419.343,1.816
419.598,1.817
419.854,1.822
420.109,1.822
420.365,1.824
420.621,1.824
420.876,1.835
421.132,1.843
421.388,1.843
421.645,1.838
421.901,1.836
422.157,1.839
422.413,1.841
422.670,1.839
422.926,1.840
423.183,1.835
423.439,1.836
423.696,1.842
423.953,1.863
424.210,1.883
424.467,1.895
424.724,1.898
424.981,1.899
425.238,1.902
425.495,1.908
425.753,1.915
426.010,1.924
426.267,1.932
426.525,1.950
426.782,1.967
427.040,1.988
427.298,2.007
427.555,2.031
427.813,2.052
428.071,2.069
428.329,2.086
428.587,2.109
428.845,2.139
429.103,2.175
429.361,2.208
429.619,2.237
429.878,2.266
430.136,2.302
430.394,2.339
430.653,2.388
430.911,2.442
431.170,2.503
431.428,2.557
431.687,2.609
431.946,2.660
432.204,2.721
432.463,2.791
432.722,2.867
432.981,2.944
433.240,3.029
433.499,3.121
433.758,3.226
434.017,3.329
434.276,3.441
434.535,3.548
434.794,3.660
435.053,3.769
435.312,3.895
435.572,4.020
435.831,4.161
436.090,4.309
436.350,4.476
436.609,4.647
436.869,4.819
437.128,4.988
437.388,5.164
437.647,5.351
437.907,5.556
438.166,5.760
438.426,5.970
438.686,6.181
438.946,6.413
439.205,6.657
439.465,6.913
439.725,7.171
439.985,7.443
440.245,7.719
440.505,8.013
440.765,8.301
441.025,8.605
441.285,8.917
441.545,9.259
441.805,9.605
442.065,9.958
442.325,10.313
442.585,10.701
442.846,11.106
443.106,11.538
443.366,11.978
443.626,12.450
443.887,12.938
444.147,13.456
444.407,13.990
444.668,14.538
444.928,15.103
445.189,15.699
445.449,16.327
445.710,16.992
445.970,17.684
446.231,18.422
446.491,19.186
446.752,19.983
447.012,20.795
447.273,21.646
447.534,22.526
447.794,23.433
448.055,24.369
448.316,25.350
448.577,26.389
448.837,27.472
449.098,28.574
449.359,29.683
449.620,30.803
449.881,31.943
450.142,33.094
450.403,34.263
450.664,35.459
450.924,36.697
451.185,37.943
451.446,39.183
451.707,40.400
451.969,41.608
452.230,42.794
452.491,43.941
452.752,45.047
453.013,46.114
453.274,47.137
453.535,48.097
453.796,48.973
454.058,49.792
454.319,50.527
454.580,51.193
454.841,51.746
455.103,52.191
455.364,52.527
455.625,52.780
455.887,52.946
456.148,53.023
456.409,53.006
456.671,52.884
456.932,52.659
457.194,52.313
457.455,51.854
457.716,51.297
457.978,50.654
458.239,49.948
458.501,49.197
458.763,48.392
459.024,47.520
459.286,46.579
459.547,45.593
459.809,44.572
460.071,43.511
460.332,42.421
460.594,41.322
460.856,40.236
461.117,39.154
461.379,38.090
461.641,37.044
461.903,36.015
462.164,35.002
462.426,34.023
462.688,33.078
462.950,32.185
463.212,31.313
463.474,30.483
463.736,29.675
463.998,28.930
464.260,28.243
464.522,27.619
464.784,27.018
465.046,26.446
465.308,25.899
465.570,25.385
465.832,24.895
466.094,24.426
466.356,23.988
466.618,23.578
466.880,23.188
467.142,22.801
467.405,22.415
467.667,22.049
467.929,21.697
468.191,21.369
468.454,21.049
468.716,20.746
468.978,20.421
469.241,20.071
469.503,19.707
469.765,19.363
470.028,19.030
470.290,18.706
470.552,18.372
470.815,18.040
471.077,17.693
471.340,17.335
471.602,16.972
471.865,16.619
472.128,16.263
472.390,15.902
472.653,15.536
472.915,15.177
473.178,14.823
473.441,14.477
473.703,14.118
473.966,13.757
474.229,13.384
474.492,13.019
474.755,12.644
475.017,12.287
475.280,11.940
475.543,11.619
475.806,11.292
476.069,10.969
476.332,10.641
476.595,10.328
476.858,10.024
477.121,9.725
477.384,9.422
477.647,9.139
477.910,8.867
478.173,8.615
478.436,8.363
478.699,8.136
478.962,7.909
479.226,7.704
479.489,7.501
479.752,7.318
480.015,7.127
480.279,6.940
480.542,6.747
480.805,6.571
481.069,6.392
481.332,6.228
481.595,6.063
481.859,5.923
482.122,5.786
482.386,5.655
482.649,5.518
482.913,5.388
483.177,5.256
483.440,5.133
483.704,5.014
483.967,4.908
484.231,4.798
484.495,4.690
484.759,4.576
485.022,4.469
485.286,4.363
485.550,4.261
485.814,4.145
486.078,4.035
486.342,3.929
486.606,3.846
486.869,3.763
487.133,3.685
487.397,3.605
487.662,3.527
487.926,3.440
488.190,3.355
488.454,3.263
488.718,3.177
488.982,3.082
489.246,3.005
489.511,2.934
489.775,2.872
490.039,2.803
490.304,2.734
490.568,2.664
490.832,2.602
491.097,2.544
491.361,2.490
491.626,2.436
491.890,2.384
492.155,2.336
492.419,2.295
492.684,2.251
492.949,2.207
493.213,2.163
493.478,2.130
493.743,2.095
494.008,2.050
494.272,2.003
494.537,1.971
494.802,1.951
495.067,1.935
495.332,1.914
495.597,1.889
495.862,1.861
496.127,1.840
496.392,1.822
496.657,1.800
496.922,1.775
497.187,1.751
497.452,1.733
497.718,1.719
497.983,1.710
498.248,1.703
498.513,1.691
498.779,1.681
499.044,1.670
499.310,1.652
499.575,1.631
499.841,1.615
500.106,1.606
500.372,1.589
500.637,1.575
500.903,1.573
501.168,1.575
501.434,1.566
501.700,1.544
501.966,1.525
502.231,1.509
502.497,1.496
502.763,1.485
503.029,1.473
503.295,1.463
503.561,1.456
503.827,1.453
504.093,1.446
504.359,1.439
504.625,1.433
504.891,1.427
505.157,1.420
505.423,1.408
505.690,1.397
505.956,1.390
506.222,1.389
506.489,1.394
506.755,1.402
507.021,1.406
507.288,1.400
507.554,1.387
507.821,1.373
508.087,1.368
508.354,1.372
508.621,1.374
508.887,1.370
509.154,1.364
509.421,1.358
509.687,1.349
509.954,1.339
510.221,1.330
510.488,1.329
510.755,1.332
511.022,1.338
511.289,1.334
511.556,1.325
511.823,1.316
512.090,1.314
512.357,1.311
512.624,1.310
512.891,1.306
513.159,1.301
513.426,1.293
513.693,1.286
513.960,1.282
514.228,1.282
514.495,1.283
514.763,1.281
515.030,1.276
515.298,1.269
515.565,1.268
515.833,1.269
516.100,1.275
516.368,1.278
516.636,1.282
516.904,1.283
517.171,1.278
517.439,1.277
517.707,1.273
517.975,1.268
518.243,1.265
518.511,1.262
518.779,1.256
519.047,1.251
519.315,1.248
519.583,1.245
519.851,1.238
520.119,1.234
520.387,1.235
520.656,1.238
520.924,1.241
521.192,1.240
521.461,1.237
521.729,1.236
521.997,1.238
522.266,1.240
522.534,1.239
522.803,1.237
523.071,1.235
523.340,1.230
523.609,1.219
523.877,1.210
524.146,1.206
524.415,1.212
524.684,1.221
524.952,1.224
525.221,1.221
525.490,1.220
525.759,1.222
526.028,1.220
526.297,1.212
526.566,1.205
526.835,1.205
527.104,1.207
527.373,1.209
527.642,1.209
527.912,1.204
528.181,1.199
528.450,1.197
528.719,1.201
528.989,1.209
529.258,1.217
529.528,1.218
529.797,1.213
530.067,1.207
530.336,1.205
530.606,1.200
530.875,1.193
531.145,1.190
531.414,1.197
531.684,1.205
531.954,1.207
532.224,1.202
532.493,1.192
532.763,1.184
533.033,1.183
533.303,1.187
533.573,1.192
533.843,1.190
534.113,1.189
534.383,1.189
534.653,1.195
534.923,1.198
535.193,1.201
535.463,1.205
535.733,1.207
536.004,1.208
536.274,1.205
536.544,1.200
536.814,1.190
537.085,1.183
537.355,1.182
537.626,1.187
537.896,1.191
538.166,1.190
538.437,1.187
538.707,1.183
538.978,1.183
539.249,1.187
539.519,1.188
539.790,1.184
540.061,1.182
540.331,1.186
540.602,1.192
540.873,1.195
541.144,1.195
541.414,1.191
541.685,1.188
541.956,1.186
542.227,1.183
542.498,1.176
542.769,1.170
543.040,1.174
543.311,1.185
543.582,1.194
543.853,1.196
544.124,1.193
544.396,1.189
544.667,1.188
544.938,1.187
545.209,1.180
545.480,1.177
545.752,1.180
546.023,1.191
546.294,1.192
546.566,1.191
546.837,1.186
547.109,1.185
547.380,1.184
547.652,1.181
547.923,1.181
548.195,1.182
548.466,1.191
548.738,1.201
549.009,1.204
549.281,1.201
549.553,1.193
549.824,1.183
550.096,1.175
550.368,1.171
550.640,1.170
550.911,1.174
551.183,1.186
551.455,1.199
551.727,1.204
551.999,1.197
552.271,1.187
552.543,1.181
552.815,1.180
553.087,1.186
553.359,1.189
553.631,1.191
553.903,1.187
554.175,1.185
554.447,1.184
554.719,1.185
554.991,1.186
555.263,1.187
555.535,1.186
555.808,1.181
556.080,1.174
556.352,1.173
556.624,1.173
556.897,1.174
557.169,1.173
557.441,1.173
557.714,1.172
557.986,1.169
558.258,1.165
558.531,1.168
558.803,1.174
559.076,1.178
559.348,1.174
559.621,1.172
559.893,1.173
560.166,1.175
560.438,1.173
560.711,1.168
560.983,1.165
561.256,1.165
561.528,1.168
561.801,1.176
562.074,1.185
562.346,1.190
562.619,1.193
562.892,1.192
563.164,1.189
563.437,1.188
563.710,1.189
563.983,1.188
564.255,1.182
564.528,1.181
564.801,1.183
565.074,1.183
565.346,1.178
565.619,1.178
565.892,1.183
566.165,1.182
566.438,1.171
566.711,1.161
566.984,1.159
567.257,1.163
567.529,1.164
567.802,1.173
568.075,1.180
568.348,1.184
568.621,1.183
568.894,1.179
569.167,1.181
569.440,1.178
569.713,1.172
569.986,1.164
570.259,1.162
570.532,1.167
570.805,1.171
571.078,1.171
571.351,1.172
571.625,1.175
571.898,1.172
572.171,1.162
572.444,1.152
572.717,1.152
572.990,1.159
573.263,1.163
573.536,1.162
573.809,1.155
574.083,1.150
574.356,1.155
574.629,1.168
574.902,1.178
575.175,1.177
575.448,1.168
575.721,1.164
575.995,1.164
576.268,1.165
576.541,1.170
576.814,1.176
577.087,1.182
577.361,1.180
577.634,1.175
577.907,1.166
578.180,1.158
578.453,1.154
578.727,1.155
579.000,1.160
579.273,1.166
579.546,1.174
579.820,1.181
580.093,1.183
580.366,1.181
580.639,1.174
580.913,1.171
581.186,1.168
581.459,1.167
581.732,1.161
582.005,1.155
582.279,1.150
582.552,1.152
582.825,1.155
583.098,1.159
583.372,1.162
583.645,1.164
583.918,1.165
584.191,1.165
584.464,1.162
584.738,1.160
585.011,1.161
585.284,1.162
585.557,1.162
585.831,1.164
586.104,1.169
586.377,1.178
586.650,1.183
586.923,1.183
587.196,1.177
587.470,1.166
587.743,1.157
588.016,1.154
588.289,1.159
588.562,1.169
588.835,1.172
589.109,1.169
589.382,1.161
589.655,1.155
589.928,1.150
590.201,1.148
590.474,1.150
590.747,1.155
591.020,1.159
591.293,1.163
591.567,1.164
591.840,1.162
592.113,1.157
592.386,1.150
592.659,1.144
592.932,1.145
593.205,1.151
593.478,1.152
593.751,1.147
594.024,1.143
594.297,1.141
594.570,1.142
594.843,1.145
595.116,1.152
595.389,1.155
595.662,1.155
595.934,1.156
596.207,1.162
596.480,1.168
596.753,1.167
597.026,1.164
597.299,1.163
597.572,1.166
597.844,1.166
598.117,1.160
598.390,1.153
598.663,1.146
598.936,1.147
599.208,1.150
599.481,1.154
599.754,1.154
600.026,1.150
600.299,1.145
600.572,1.141
600.844,1.138
601.117,1.136
601.390,1.136
601.662,1.138
601.935,1.140
602.207,1.140
602.480,1.143
602.752,1.144
603.025,1.143
603.297,1.144
603.570,1.151
603.842,1.162
604.115,1.167
604.387,1.166
604.660,1.159
604.932,1.156
605.204,1.160
605.477,1.167
605.749,1.171
606.021,1.169
606.294,1.164
606.566,1.158
606.838,1.155
607.110,1.157
607.383,1.157
607.655,1.157
607.927,1.156
608.199,1.159
608.471,1.159
608.743,1.157
609.015,1.153
609.287,1.149
609.559,1.148
609.831,1.149
610.103,1.151
610.375,1.150
610.647,1.147
610.919,1.141
611.191,1.139
611.463,1.140
611.735,1.142
612.007,1.141
612.278,1.142
612.550,1.143
612.822,1.148
613.094,1.154
613.365,1.159
613.637,1.163
613.909,1.165
614.180,1.165
614.452,1.161
614.723,1.152
614.995,1.145
615.266,1.144
615.538,1.150
615.809,1.153
616.081,1.152
616.352,1.152
616.623,1.154
616.895,1.156
617.166,1.156
617.437,1.155
617.709,1.150
617.980,1.148
618.251,1.149
618.522,1.154
618.793,1.166
619.065,1.177
619.336,1.178
619.607,1.172
619.878,1.170
620.149,1.178
620.420,1.179
620.691,1.177
620.962,1.172
621.232,1.168
621.503,1.161
621.774,1.152
622.045,1.146
622.316,1.150
622.586,1.159
622.857,1.169
623.128,1.170
623.398,1.167
623.669,1.164
623.940,1.160
624.210,1.159
624.481,1.160
624.751,1.160
625.021,1.155
625.292,1.143
625.562,1.136
625.833,1.133
626.103,1.135
626.373,1.137
626.643,1.142
626.914,1.146
627.184,1.150
627.454,1.153
627.724,1.154
627.994,1.154
628.264,1.150
628.534,1.140
628.804,1.135
629.074,1.140
629.344,1.152
629.614,1.154
629.884,1.147
630.154,1.136
630.424,1.130
630.693,1.126
630.963,1.121
631.233,1.114
631.502,1.117
631.772,1.127
632.041,1.140
632.311,1.146
632.581,1.149
632.850,1.145
633.119,1.136
633.389,1.126
633.658,1.123
633.928,1.127
634.197,1.138
634.466,1.150
634.735,1.157
635.004,1.154
635.274,1.145
635.543,1.138
635.812,1.137
636.081,1.139
636.350,1.140
636.619,1.143
636.888,1.145
637.157,1.149
637.426,1.155
637.694,1.158
637.963,1.157
638.232,1.154
638.501,1.157
638.769,1.161
639.038,1.164
639.307,1.166
639.575,1.166
639.844,1.159
640.112,1.150
640.381,1.141
640.649,1.142
640.917,1.143
641.186,1.143
641.454,1.144
641.722,1.143
641.991,1.141
642.259,1.136
642.527,1.133
642.795,1.134
643.063,1.129
643.331,1.128
643.599,1.131
643.867,1.135
644.135,1.141
644.403,1.145
644.671,1.150
644.939,1.155
645.206,1.155
645.474,1.156
645.742,1.152
646.009,1.150
646.277,1.150
646.545,1.153
646.812,1.158
647.080,1.160
647.347,1.160
647.615,1.157
647.882,1.148
648.149,1.136
648.417,1.129
648.684,1.127
648.951,1.133
649.219,1.141
649.486,1.147
649.753,1.147
650.020,1.141
650.287,1.134
650.554,1.129
650.821,1.126
651.088,1.129
651.355,1.136
651.622,1.141
651.889,1.145
652.155,1.145
652.422,1.145
652.689,1.146
652.956,1.148
653.222,1.154
653.489,1.162
653.755,1.167
654.022,1.161
654.288,1.150
654.555,1.141
654.821,1.140
655.088,1.143
655.354,1.148
655.620,1.155
655.887,1.159
656.153,1.162
656.419,1.162
656.685,1.159
656.951,1.155
657.217,1.151
657.483,1.147
657.749,1.144
658.015,1.143
658.281,1.144
658.547,1.141
658.813,1.138
659.079,1.133
659.345,1.131
659.610,1.129
659.876,1.129
660.142,1.131
660.407,1.133
660.673,1.136
660.939,1.140
661.204,1.140
661.470,1.135
661.735,1.132
662.000,1.131
662.266,1.133
662.531,1.134
662.796,1.136
663.062,1.137
663.327,1.138
663.592,1.140
663.857,1.141
664.122,1.141
664.388,1.140
664.653,1.140
664.918,1.139
665.183,1.139
665.448,1.140
665.712,1.144
665.977,1.150
666.242,1.148
666.507,1.136
666.772,1.126
667.037,1.122
667.301,1.128
667.566,1.137
667.831,1.144
668.095,1.146
668.360,1.141
668.624,1.136
668.889,1.137
669.153,1.137
669.418,1.141
669.682,1.141
669.946,1.145
670.211,1.149
670.475,1.155
670.739,1.161
671.004,1.171
671.268,1.186
671.532,1.200
671.796,1.191
672.060,1.176
672.324,1.162
672.588,1.165
672.852,1.174
673.116,1.195
673.380,1.210
673.644,1.196
673.908,1.166
674.172,1.145
674.436,1.146
674.700,1.148
674.963,1.147
675.227,1.145
675.491,1.142
675.754,1.142
676.018,1.143
676.282,1.147
676.545,1.145
676.809,1.141
677.072,1.136
677.336,1.136
677.599,1.137
677.863,1.138
678.126,1.140
678.389,1.142
678.653,1.145
678.916,1.141
679.179,1.134
679.442,1.131
679.706,1.135
679.969,1.142
680.232,1.150
680.495,1.158
680.758,1.162
681.021,1.159
681.284,1.147
681.547,1.136
681.810,1.135
682.073,1.145
682.336,1.155
682.599,1.158
682.862,1.155
683.125,1.155
683.388,1.157
683.651,1.156
683.913,1.145
684.176,1.133
684.439,1.125
684.702,1.124
684.964,1.125
685.227,1.128
685.490,1.137
685.752,1.147
686.015,1.149
686.277,1.145
686.540,1.141
686.802,1.139
687.065,1.140
687.327,1.139
687.590,1.139
687.852,1.132
688.115,1.128
688.377,1.129
688.639,1.133
688.902,1.139
689.164,1.144
689.426,1.151
689.689,1.154
689.951,1.151
690.213,1.146
690.475,1.144
690.737,1.142
691.000,1.136
691.262,1.132
691.524,1.131
691.786,1.138
692.048,1.144
692.310,1.141
692.572,1.131
692.834,1.120
693.096,1.118
693.358,1.124
693.620,1.132
693.882,1.141
694.144,1.143
694.406,1.142
694.668,1.141
694.930,1.142
695.192,1.142
695.453,1.143
695.715,1.142
695.977,1.141
696.239,1.136
696.501,1.135
696.762,1.138
697.024,1.140
697.286,1.134
697.548,1.128
697.809,1.125
698.071,1.126
698.333,1.129
698.594,1.132
698.856,1.140
699.118,1.146
699.379,1.149
699.641,1.150
699.902,1.151
700.164,1.150
700.426,1.148
700.687,1.143
700.949,1.140
701.210,1.137
701.472,1.134
701.733,1.131
701.995,1.132
702.256,1.135
702.518,1.136
702.779,1.136
703.041,1.142
703.302,1.149
703.563,1.147
703.825,1.138
704.086,1.128
704.348,1.126
704.609,1.130
704.871,1.141
705.132,1.150
705.393,1.148
705.655,1.143
705.916,1.140
706.177,1.141
706.439,1.141
706.700,1.141
706.961,1.142
707.223,1.140
707.484,1.129
707.745,1.119
708.007,1.111
708.268,1.104
708.529,1.095
708.790,1.084
709.052,1.082
709.313,1.088
709.574,1.099
709.835,1.102
710.097,1.093
710.358,1.079
710.619,1.066
710.881,1.059
711.142,1.053
711.403,1.052
711.664,1.055
711.926,1.060
712.187,1.065
712.448,1.070
712.709,1.075
712.970,1.077
713.232,1.076
713.493,1.077
713.754,1.079
714.015,1.086
714.277,1.093
714.538,1.099
714.799,1.102
715.060,1.103
715.322,1.099
715.583,1.093
715.844,1.085
716.105,1.076
716.367,1.072
716.628,1.071
716.889,1.074
717.150,1.072
717.411,1.071
717.673,1.075
717.934,1.081
718.195,1.083
718.457,1.079
718.718,1.073
718.979,1.069
719.240,1.068
719.502,1.070
719.763,1.071
720.024,1.074
720.286,1.075
720.547,1.070
720.808,1.062
721.069,1.058
721.331,1.065
721.592,1.073
721.853,1.080
722.115,1.084
722.376,1.086
722.638,1.086
722.899,1.085
723.160,1.080
723.422,1.074
723.683,1.070
723.944,1.070
724.206,1.073
724.467,1.071
724.729,1.071
724.990,1.076
725.252,1.081
725.513,1.079
725.775,1.071
726.036,1.063
726.298,1.062
726.559,1.064
726.821,1.065
727.082,1.063
727.344,1.063
727.605,1.065
727.867,1.069
728.128,1.071
728.390,1.072
728.652,1.075
728.913,1.081
729.175,1.088
729.436,1.090
729.698,1.090
729.960,1.088
730.221,1.083
730.483,1.078
730.745,1.076
731.007,1.077
731.268,1.078
731.530,1.078
731.792,1.079
732.054,1.080
732.315,1.079
732.577,1.081
732.839,1.079
733.101,1.078
733.363,1.073
733.625,1.068
733.887,1.066
734.149,1.065
734.411,1.067
734.673,1.070
734.935,1.073
735.197,1.077
735.459,1.080
735.721,1.083
735.983,1.077
736.245,1.070
736.507,1.070
736.769,1.079
737.031,1.087
737.293,1.082
737.555,1.074
737.818,1.069
738.080,1.065
738.342,1.059
738.604,1.053
738.867,1.050
739.129,1.050
739.391,1.051
739.654,1.055
739.916,1.058
740.178,1.065
740.441,1.070
740.703,1.074
740.966,1.074
741.228,1.070
741.491,1.069
741.753,1.070
742.016,1.072
742.278,1.072
742.541,1.072
742.804,1.073
743.066,1.075
743.329,1.075
743.592,1.075
743.854,1.079
744.117,1.084
744.380,1.084
744.643,1.079
744.905,1.074
745.168,1.075
745.431,1.076
745.694,1.074
745.957,1.070
746.220,1.065
746.483,1.065
746.746,1.069
747.009,1.080
747.272,1.093
747.535,1.101
747.798,1.098
748.061,1.089
748.324,1.077
748.588,1.070
748.851,1.065
749.114,1.063
749.377,1.061
749.641,1.060
749.904,1.065
750.167,1.069
750.431,1.075
750.694,1.082
750.958,1.087
751.221,1.086
751.485,1.077
751.748,1.070
752.012,1.073
752.275,1.084
752.539,1.091
752.803,1.088
753.066,1.077
753.330,1.068
753.594,1.060
753.857,1.059
754.121,1.064
754.385,1.074
754.649,1.082
754.913,1.085
755.177,1.085
755.441,1.083
755.705,1.075
755.969,1.068
756.233,1.068
756.497,1.071
756.761,1.073
757.025,1.070
757.289,1.070
757.553,1.073
757.818,1.077
758.082,1.077
758.346,1.076
758.610,1.074
758.875,1.074
759.139,1.074
759.404,1.072
759.668,1.068
759.932,1.066
760.197,1.068
760.462,1.071
760.726,1.071
760.991,1.074
761.255,1.080
761.520,1.082
761.785,1.075
762.049,1.063
762.314,1.059
762.579,1.064
762.844,1.074
763.109,1.079
763.374,1.080
763.639,1.081
763.903,1.082
764.168,1.081
764.433,1.080
764.699,1.082
764.964,1.079
765.229,1.073
765.494,1.066
765.759,1.067
766.024,1.071
766.290,1.078
766.555,1.086
766.820,1.089
767.086,1.090
767.351,1.088
767.616,1.088
767.882,1.086
768.147,1.084
768.413,1.079
768.678,1.078
768.944,1.079
769.209,1.081
769.475,1.084
769.741,1.088
770.006,1.091
770.272,1.094
770.538,1.090
770.804,1.084
771.070,1.080
771.335,1.085
771.601,1.092
771.867,1.093
772.133,1.089
772.399,1.081
772.665,1.072
772.931,1.069
773.197,1.073
773.464,1.082
773.730,1.091
773.996,1.098
774.262,1.103
774.528,1.101
774.795,1.100
775.061,1.099
775.327,1.096
775.594,1.088
775.860,1.076
776.126,1.065
776.393,1.058
776.659,1.056
776.926,1.057
777.193,1.061
777.459,1.067
777.726,1.070
777.992,1.068
778.259,1.064
778.526,1.065
778.793,1.069
779.059,1.075
779.326,1.080
779.593,1.083
779.860,1.084
780.127,1.083
780.394,1.080
780.661,1.073
780.928,1.066
781.195,1.060
781.462,1.059
781.729,1.060
781.996,1.062
782.263,1.066
782.530,1.075
782.797,1.079
783.064,1.076
783.332,1.067
783.599,1.059
783.866,1.059
784.134,1.061
784.401,1.066
784.668,1.069
784.936,1.069
785.203,1.063
785.470,1.056
785.738,1.053
786.005,1.056
786.273,1.059
786.541,1.062
786.808,1.062
787.076,1.060
787.343,1.058
787.611,1.062
787.879,1.070
788.146,1.076
788.414,1.081
788.682,1.081
788.950,1.079
789.217,1.079
789.485,1.085
789.753,1.090
790.021,1.087
790.289,1.075
790.557,1.065
790.825,1.062
791.093,1.066
791.361,1.074
791.629,1.086
791.897,1.096
792.165,1.097
792.433,1.090
792.701,1.077
792.969,1.067
793.237,1.062
793.505,1.065
793.773,1.066
794.042,1.065
794.310,1.061
794.578,1.061
794.846,1.064
795.115,1.065
795.383,1.068
795.651,1.074
795.920,1.077
796.188,1.077
796.456,1.077
796.725,1.079
796.993,1.084
797.261,1.084
797.530,1.083
797.798,1.079
798.067,1.081
798.335,1.083
798.604,1.079
798.872,1.069
799.141,1.057
799.409,1.051
799.678,1.055
799.946,1.063
800.215,1.070
800.483,1.071
800.752,1.072
801.020,1.070
801.289,1.070
801.558,1.070
801.826,1.071
802.095,1.070
802.363,1.071
802.632,1.075
802.901,1.080
803.169,1.080
803.438,1.076
803.707,1.070
803.976,1.063
804.244,1.063
804.513,1.065
804.782,1.065
805.050,1.065
805.319,1.068
805.588,1.077
805.857,1.082
806.125,1.083
806.394,1.078
806.663,1.070
806.931,1.062
807.200,1.058
807.469,1.062
807.738,1.067
808.006,1.071
808.275,1.074
808.544,1.079
808.813,1.082
809.082,1.082
809.350,1.080
809.619,1.077
809.888,1.071
810.157,1.064
810.425,1.059
810.694,1.055
810.963,1.053
811.232,1.049
811.500,1.048
811.769,1.047
812.038,1.052
812.306,1.060
812.575,1.068
812.844,1.073
813.113,1.074
813.381,1.070
813.650,1.067
813.919,1.069
814.187,1.074
814.456,1.080
814.725,1.083
814.993,1.082
815.262,1.081
815.531,1.083
815.799,1.085
816.068,1.079
816.336,1.070
816.605,1.066
816.873,1.070
817.142,1.077
817.411,1.083
817.679,1.084
817.948,1.088
818.216,1.093
818.485,1.110
818.753,1.122
819.021,1.114
819.290,1.092
819.558,1.072
819.827,1.070
820.095,1.073
820.363,1.072
820.632,1.069
820.900,1.065
821.168,1.069
821.437,1.077
821.705,1.085
821.973,1.087
822.241,1.086
822.509,1.084
822.777,1.084
823.046,1.086
823.314,1.090
823.582,1.093
823.850,1.092
824.118,1.090
824.386,1.086
824.654,1.076
824.922,1.065
825.190,1.060
825.457,1.067
825.725,1.075
825.993,1.078
826.261,1.075
826.529,1.069
826.796,1.064
827.064,1.062
827.332,1.062
827.599,1.066
827.867,1.072
828.134,1.074
828.402,1.067
828.669,1.061
828.937,1.059
829.204,1.068
829.471,1.080
829.739,1.089
830.006,1.092
830.273,1.088
830.540,1.079
830.807,1.067
831.075,1.062
831.342,1.066
831.609,1.071
831.876,1.074
832.142,1.074
832.409,1.072
832.676,1.067
832.943,1.060
833.210,1.056
833.476,1.057
833.743,1.060
834.010,1.065
834.276,1.062
834.543,1.060
834.809,1.060
835.076,1.061
835.342,1.064
835.608,1.070
835.874,1.075
836.141,1.074
836.407,1.070
836.673,1.069
836.939,1.071
837.205,1.073
837.471,1.070
837.737,1.065
838.002,1.059
838.268,1.057
838.534,1.058
838.799,1.059
839.065,1.061
839.330,1.062
839.596,1.063
839.861,1.062
840.127,1.065
840.392,1.070
840.657,1.075
840.922,1.079
841.187,1.080
841.452,1.081
841.717,1.080
841.982,1.077
842.247,1.073
842.511,1.071
842.776,1.072
843.041,1.071
843.305,1.067
843.570,1.066
843.834,1.068
844.098,1.073
844.362,1.078
844.627,1.080
844.891,1.078
845.155,1.072
845.419,1.069
845.682,1.071
845.946,1.078
846.210,1.084
846.474,1.084
846.737,1.082
847.001,1.077
847.264,1.068
847.527,1.062
847.790,1.059
848.054,1.060
848.317,1.059
848.580,1.057
848.843,1.058
849.105,1.066
849.368,1.079
849.631,1.087
849.893,1.088
850.156,1.088
850.418,1.089
850.680,1.082
850.943,1.076
851.205,1.075
851.467,1.075
851.729,1.072
851.991,1.074
852.252,1.084
852.514,1.095
852.776,1.099
853.037,1.100
853.298,1.093
853.560,1.084
853.821,1.071
854.082,1.063
854.343,1.065
854.604,1.077
854.865,1.092
855.126,1.100
855.386,1.101
855.647,1.098
855.907,1.090
856.168,1.083
856.428,1.078
856.688,1.074
856.948,1.066
857.208,1.060
857.468,1.060
857.727,1.065
857.987,1.068
858.247,1.076
858.506,1.085
858.765,1.088
859.024,1.078
859.284,1.065
859.543,1.059
859.801,1.056
860.060,1.059
860.319,1.064
860.577,1.074
860.836,1.079
861.094,1.085
861.352,1.086
861.611,1.084
861.869,1.074
862.127,1.070
862.384,1.068
862.642,1.070
862.900,1.077
863.157,1.084
863.414,1.088
863.672,1.082
863.929,1.073
864.186,1.067
864.443,1.067
864.699,1.070
864.956,1.070
865.212,1.066
865.469,1.066
865.725,1.075
865.981,1.085
866.237,1.090
866.493,1.088
866.749,1.081
867.005,1.074
867.260,1.066
867.516,1.064
867.771,1.066
868.026,1.070
868.282,1.078
868.536,1.080
868.791,1.076
869.046,1.069
869.301,1.064
869.555,1.068
869.809,1.075
870.064,1.080
870.318,1.080
870.572,1.077
870.826,1.071
871.079,1.065
871.333,1.063
871.586,1.066
871.840,1.066
872.093,1.066
872.346,1.070
872.599,1.079
872.852,1.088
873.105,1.091
873.357,1.085
873.610,1.078
873.862,1.076
874.114,1.080
874.366,1.084
874.618,1.082
874.870,1.074
875.121,1.067
875.373,1.065
875.624,1.068
875.876,1.069
876.127,1.070
876.378,1.066
876.629,1.061
876.879,1.060
877.130,1.067
877.381,1.071
877.631,1.067
877.881,1.064
878.131,1.065
878.381,1.072
878.631,1.081
878.881,1.087
879.130,1.088
879.380,1.081
879.629,1.074
879.878,1.069
880.127,1.070
880.376,1.075
880.625,1.086
880.873,1.094
881.122,1.096
881.370,1.092
881.618,1.086
881.866,1.081
882.114,1.074
882.362,1.072
882.610,1.073
882.857,1.076
883.105,1.077
883.352,1.073
883.599,1.069
883.846,1.063
884.093,1.061
884.340,1.065
884.586,1.072
884.833,1.077
885.079,1.077
885.325,1.075
885.571,1.074
885.817,1.080
886.063,1.083
886.309,1.085
886.554,1.086
886.800,1.088
887.045,1.092
887.290,1.087
887.535,1.079
887.780,1.074
888.025,1.073
888.270,1.080
888.514,1.085
888.758,1.089
889.003,1.085
889.247,1.079
889.491,1.079
889.735,1.084
889.978,1.090
890.222,1.087
890.465,1.081
890.709,1.078
890.952,1.074
891.195,1.072
891.438,1.069
891.681,1.066
891.923,1.067
892.166,1.069
892.408,1.071
892.651,1.069
892.893,1.066
893.135,1.065
893.377,1.066
893.619,1.066
893.861,1.068
894.102,1.072
894.344,1.081
894.585,1.093
894.826,1.099
895.067,1.094
895.308,1.086
895.549,1.075
895.790,1.066
896.031,1.058
896.271,1.059
896.512,1.065
896.752,1.072
896.992,1.071
897.232,1.065
897.472,1.060
897.712,1.062
897.952,1.072
898.191,1.079
898.431,1.081
898.670,1.084
898.910,1.089
899.149,1.096
899.388,1.098
899.627,1.097
899.866,1.091
900.105,1.084
900.343,1.079
900.582,1.082
900.820,1.088
901.059,1.093
901.297,1.093
901.535,1.085
901.773,1.074
902.011,1.062
902.249,1.054
902.487,1.052
902.725,1.060
902.963,1.070
903.200,1.073
903.438,1.073
903.675,1.074
903.912,1.081
904.150,1.089
904.387,1.090
904.624,1.083
904.861,1.070
905.098,1.065
905.334,1.066
905.571,1.064
905.808,1.062
906.045,1.066
906.281,1.073
906.518,1.077
906.754,1.079
906.990,1.081
907.227,1.079
907.463,1.072
907.699,1.070
907.935,1.075
908.171,1.082
908.407,1.081
908.643,1.078
908.879,1.074
909.115,1.075
909.350,1.075
909.586,1.076
909.822,1.076
910.057,1.084
910.293,1.098
910.528,1.107
910.764,1.109
910.999,1.105
911.235,1.099
911.470,1.093
911.706,1.085
911.941,1.084
912.176,1.083
912.412,1.080
912.647,1.079
912.882,1.082
913.117,1.086
913.352,1.087
913.588,1.080
913.823,1.073
914.058,1.068
914.293,1.067
914.528,1.062
914.763,1.056
914.999,1.051
915.234,1.055
915.469,1.062
915.704,1.067
915.939,1.066
916.174,1.062
916.409,1.062
916.645,1.067
916.880,1.074
917.115,1.079
917.350,1.082
917.586,1.084
917.821,1.085
918.056,1.088
918.292,1.090
918.527,1.088
918.763,1.084
918.998,1.083
919.234,1.092
919.469,1.102
919.705,1.105
919.940,1.098
920.176,1.090
920.412,1.091
920.648,1.091
920.884,1.091
921.120,1.084
921.356,1.080
921.592,1.077
921.828,1.078
922.065,1.084
922.301,1.093
922.537,1.102
922.774,1.105
923.011,1.095
923.247,1.085
923.484,1.079
923.721,1.084
923.958,1.091
924.195,1.091
924.433,1.087
924.670,1.076
924.908,1.069
925.145,1.066
925.383,1.070
925.621,1.075
925.859,1.079
926.097,1.082
926.335,1.082
926.574,1.081
926.813,1.081
927.051,1.082
927.290,1.084
927.529,1.093
927.769,1.106
928.008,1.111
928.248,1.099
928.487,1.084
928.727,1.076
928.967,1.080
929.208,1.086
929.448,1.089
929.689,1.089
929.930,1.081
930.171,1.073
930.413,1.066
930.654,1.067
930.896,1.067
931.138,1.067
931.380,1.067
931.623,1.070
931.865,1.073
932.108,1.078
932.352,1.080
932.595,1.084
932.839,1.089
933.083,1.090
933.327,1.085
933.571,1.080
933.816,1.081
934.061,1.084
934.307,1.083
934.552,1.079
934.798,1.078
935.045,1.081
935.291,1.082
935.538,1.080
935.785,1.078
936.033,1.081
936.281,1.085
936.529,1.089
936.777,1.090
937.026,1.085
937.275,1.079
937.525,1.072
937.775,1.067
938.025,1.062
938.276,1.061
938.527,1.063
938.778,1.062
939.030,1.060
939.282,1.058
939.535,1.065
939.788,1.072
940.041,1.074
940.295,1.071
940.550,1.070
940.804,1.075
941.059,1.078
941.315,1.073
941.571,1.066
941.828,1.063
942.085,1.063
942.342,1.066
942.600,1.066
942.858,1.066
943.117,1.064
943.377,1.062
943.636,1.060
943.897,1.063
944.158,1.067
944.419,1.075
944.681,1.079
944.944,1.078
945.207,1.075
945.470,1.074
945.734,1.077
945.999,1.086
946.264,1.096
946.530,1.104
946.797,1.105
947.064,1.103
947.331,1.098
947.600,1.091
947.869,1.083
948.138,1.076
948.408,1.071
948.679,1.072
948.950,1.074
949.222,1.073
949.495,1.066
949.768,1.063
950.043,1.069
