Wavelength (nm),Intensity B1.1,,C:/Users/Brend/Desktop/LED Spectras v2/Blinds/-Interference/Spectrometer Data (Newer).sp,,,B1.1,
379.792,1.536,,2018-07-02 14:46:33,,Integration Time,100 ms,
380.000,1.519,,Analyze Light,,Number of Scans to Average,25,
380.209,1.513,,,,Smoothing,0,
380.418,1.533
380.627,1.546
380.837,1.545
381.048,1.554
381.259,1.552
381.471,1.551
381.683,1.562
381.896,1.566
382.110,1.561
382.324,1.569
382.538,1.582
382.753,1.603
382.969,1.592
383.185,1.578
383.402,1.579
383.619,1.576
383.837,1.589
384.055,1.595
384.274,1.611
384.493,1.618
384.712,1.623
384.932,1.632
385.153,1.637
385.374,1.636
385.596,1.638
385.818,1.650
386.040,1.663
386.263,1.674
386.487,1.670
386.710,1.671
386.935,1.672
387.159,1.667
387.385,1.673
387.610,1.678
387.836,1.674
388.063,1.682
388.289,1.684
388.517,1.682
388.744,1.680
388.972,1.687
389.201,1.708
389.430,1.706
389.659,1.706
389.889,1.710
390.119,1.710
390.349,1.711
390.580,1.733
390.811,1.744
391.042,1.741
391.274,1.743
391.507,1.739
391.739,1.738
391.972,1.732
392.205,1.735
392.439,1.747
392.673,1.756
392.907,1.756
393.142,1.764
393.377,1.781
393.612,1.790
393.848,1.793
394.084,1.794
394.320,1.807
394.557,1.809
394.794,1.816
395.031,1.818
395.269,1.830
395.507,1.841
395.745,1.849
395.983,1.843
396.222,1.848
396.461,1.856
396.700,1.872
396.940,1.883
397.180,1.879
397.420,1.882
397.660,1.879
397.901,1.874
398.142,1.882
398.383,1.896
398.625,1.891
398.866,1.890
399.108,1.912
399.351,1.934
399.593,1.951
399.836,1.941
400.079,1.942
400.322,1.938
400.566,1.932
400.809,1.929
401.053,1.923
401.298,1.933
401.542,1.942
401.787,1.945
402.031,1.961
402.277,1.965
402.522,1.976
402.767,1.972
403.013,1.974
403.259,1.977
403.505,1.991
403.752,1.991
403.998,1.988
404.245,1.991
404.492,2.014
404.739,2.016
404.986,2.016
405.234,2.028
405.482,2.030
405.730,2.026
405.978,2.027
406.226,2.025
406.475,2.011
406.723,2.005
406.972,2.018
407.221,2.034
407.470,2.054
407.720,2.065
407.969,2.073
408.219,2.055
408.469,2.065
408.719,2.080
408.969,2.079
409.219,2.090
409.470,2.101
409.720,2.092
409.971,2.101
410.222,2.120
410.473,2.131
410.724,2.123
410.976,2.126
411.227,2.135
411.479,2.146
411.731,2.150
411.983,2.159
412.235,2.157
412.487,2.158
412.740,2.152
412.992,2.165
413.245,2.170
413.497,2.169
413.750,2.172
414.003,2.178
414.257,2.172
414.510,2.179
414.763,2.185
415.017,2.199
415.270,2.204
415.524,2.211
415.778,2.207
416.032,2.207
416.286,2.206
416.540,2.227
416.794,2.227
417.049,2.239
417.303,2.232
417.558,2.244
417.812,2.249
418.067,2.250
418.322,2.250
418.577,2.256
418.832,2.245
419.088,2.243
419.343,2.236
419.598,2.250
419.854,2.237
420.109,2.255
420.365,2.261
420.621,2.281
420.876,2.281
421.132,2.288
421.388,2.280
421.645,2.275
421.901,2.270
422.157,2.286
422.413,2.286
422.670,2.295
422.926,2.291
423.183,2.294
423.439,2.287
423.696,2.310
423.953,2.317
424.210,2.348
424.467,2.356
424.724,2.345
424.981,2.343
425.238,2.342
425.495,2.351
425.753,2.377
426.010,2.381
426.267,2.391
426.525,2.413
426.782,2.432
427.040,2.431
427.298,2.459
427.555,2.483
427.813,2.505
428.071,2.523
428.329,2.547
428.587,2.572
428.845,2.590
429.103,2.623
429.361,2.662
429.619,2.692
429.878,2.728
430.136,2.759
430.394,2.814
430.653,2.860
430.911,2.926
431.170,2.995
431.428,3.056
431.687,3.117
431.946,3.191
432.204,3.236
432.463,3.313
432.722,3.399
432.981,3.478
433.240,3.546
433.499,3.660
433.758,3.756
434.017,3.875
434.276,3.975
434.535,4.082
434.794,4.186
435.053,4.332
435.312,4.451
435.572,4.593
435.831,4.743
436.090,4.909
436.350,5.070
436.609,5.249
436.869,5.423
437.128,5.602
437.388,5.789
437.647,6.003
437.907,6.218
438.166,6.454
438.426,6.655
438.686,6.876
438.946,7.116
439.205,7.385
439.465,7.636
439.725,7.940
439.985,8.229
440.245,8.513
440.505,8.787
440.765,9.097
441.025,9.431
441.285,9.758
441.545,10.080
441.805,10.426
442.065,10.777
442.325,11.163
442.585,11.530
442.846,11.937
443.106,12.337
443.366,12.819
443.626,13.247
443.887,13.678
444.147,14.168
444.407,14.661
444.668,15.145
444.928,15.693
445.189,16.233
445.449,16.816
445.710,17.435
445.970,18.044
446.231,18.662
446.491,19.346
446.752,20.027
447.012,20.749
447.273,21.492
447.534,22.313
447.794,23.118
448.055,23.982
448.316,24.869
448.577,25.839
448.837,26.850
449.098,27.853
449.359,28.941
449.620,30.075
449.881,31.211
450.142,32.396
450.403,33.597
450.664,34.924
450.924,36.313
451.185,37.721
451.446,39.169
451.707,40.670
451.969,42.177
452.230,43.733
452.491,45.297
452.752,46.877
453.013,48.452
453.274,50.067
453.535,51.696
453.796,53.319
454.058,54.900
454.319,56.484
454.580,58.045
454.841,59.505
455.103,60.891
455.364,62.243
455.625,63.546
455.887,64.845
456.148,66.055
456.409,67.146
456.671,68.112
456.932,68.961
457.194,69.675
457.455,70.327
457.716,70.810
457.978,71.151
458.239,71.416
458.501,71.562
458.763,71.605
459.024,71.501
459.286,71.215
459.547,70.809
459.809,70.276
460.071,69.594
460.332,68.826
460.594,67.983
460.856,67.031
461.117,66.074
461.379,64.979
461.641,63.880
461.903,62.713
462.164,61.444
462.426,60.147
462.688,58.838
462.950,57.508
463.212,56.202
463.474,54.886
463.736,53.566
463.998,52.272
464.260,51.040
464.522,49.832
464.784,48.667
465.046,47.552
465.308,46.450
465.570,45.453
465.832,44.476
466.094,43.510
466.356,42.608
466.618,41.728
466.880,40.916
467.142,40.101
467.405,39.356
467.667,38.640
467.929,38.000
468.191,37.340
468.454,36.699
468.716,36.112
468.978,35.537
469.241,34.963
469.503,34.339
469.765,33.797
470.028,33.294
470.290,32.768
470.552,32.262
470.815,31.807
471.077,31.299
471.340,30.791
471.602,30.330
471.865,29.843
472.128,29.317
472.390,28.832
472.653,28.362
472.915,27.872
473.178,27.400
473.441,26.938
473.703,26.411
473.966,25.867
474.229,25.346
474.492,24.785
474.755,24.262
475.017,23.717
475.280,23.174
475.543,22.640
475.806,22.152
476.069,21.612
476.332,21.053
476.595,20.515
476.858,19.983
477.121,19.459
477.384,18.946
477.647,18.430
477.910,17.970
478.173,17.496
478.436,17.007
478.699,16.555
478.962,16.151
479.226,15.751
479.489,15.329
479.752,14.917
480.015,14.522
480.279,14.126
480.542,13.743
480.805,13.366
481.069,13.029
481.332,12.677
481.595,12.344
481.859,12.027
482.122,11.753
482.386,11.451
482.649,11.160
482.913,10.854
483.177,10.599
483.440,10.337
483.704,10.085
483.967,9.867
484.231,9.676
484.495,9.445
484.759,9.216
485.022,8.999
485.286,8.800
485.550,8.592
485.814,8.388
486.078,8.164
486.342,8.003
486.606,7.826
486.869,7.650
487.133,7.482
487.397,7.339
487.662,7.156
487.926,6.993
488.190,6.814
488.454,6.666
488.718,6.491
488.982,6.350
489.246,6.160
489.511,6.022
489.775,5.870
490.039,5.732
490.304,5.586
490.568,5.450
490.832,5.298
491.097,5.175
491.361,5.034
491.626,4.922
491.890,4.783
492.155,4.653
492.419,4.514
492.684,4.412
492.949,4.270
493.213,4.155
493.478,4.055
493.743,3.956
494.008,3.822
494.272,3.710
494.537,3.611
494.802,3.534
495.067,3.446
495.332,3.384
495.597,3.300
495.862,3.227
496.127,3.132
496.392,3.057
496.657,2.961
496.922,2.888
497.187,2.812
497.452,2.761
497.718,2.701
497.983,2.665
498.248,2.607
498.513,2.556
498.779,2.505
499.044,2.485
499.310,2.434
499.575,2.379
499.841,2.326
500.106,2.301
500.372,2.267
500.637,2.216
500.903,2.195
501.168,2.181
501.434,2.138
501.700,2.092
501.966,2.044
502.231,2.020
502.497,1.984
502.763,1.961
503.029,1.927
503.295,1.910
503.561,1.886
503.827,1.872
504.093,1.863
504.359,1.855
504.625,1.826
504.891,1.806
505.157,1.791
505.423,1.781
505.690,1.749
505.956,1.728
506.222,1.720
506.489,1.714
506.755,1.713
507.021,1.711
507.288,1.696
507.554,1.681
507.821,1.655
508.087,1.644
508.354,1.633
508.621,1.637
508.887,1.621
509.154,1.598
509.421,1.591
509.687,1.579
509.954,1.549
510.221,1.544
510.488,1.531
510.755,1.542
511.022,1.542
511.289,1.531
511.556,1.496
511.823,1.492
512.090,1.493
512.357,1.497
512.624,1.477
512.891,1.463
513.159,1.454
513.426,1.444
513.693,1.437
513.960,1.435
514.228,1.430
514.495,1.427
514.763,1.426
515.030,1.424
515.298,1.414
515.565,1.408
515.833,1.409
516.100,1.405
516.368,1.387
516.636,1.388
516.904,1.386
517.171,1.379
517.439,1.370
517.707,1.364
517.975,1.358
518.243,1.357
518.511,1.365
518.779,1.351
519.047,1.341
519.315,1.355
519.583,1.346
519.851,1.333
520.119,1.323
520.387,1.325
520.656,1.323
520.924,1.324
521.192,1.325
521.461,1.325
521.729,1.325
521.997,1.329
522.266,1.324
522.534,1.318
522.803,1.325
523.071,1.322
523.340,1.314
523.609,1.302
523.877,1.300
524.146,1.296
524.415,1.288
524.684,1.288
524.952,1.282
525.221,1.274
525.490,1.282
525.759,1.296
526.028,1.288
526.297,1.286
526.566,1.279
526.835,1.279
527.104,1.282
527.373,1.284
527.642,1.282
527.912,1.270
528.181,1.257
528.450,1.262
528.719,1.263
528.989,1.266
529.258,1.275
529.528,1.278
529.797,1.264
530.067,1.261
530.336,1.268
530.606,1.262
530.875,1.254
531.145,1.247
531.414,1.248
531.684,1.261
531.954,1.266
532.224,1.255
532.493,1.242
532.763,1.229
533.033,1.231
533.303,1.244
533.573,1.247
533.843,1.245
534.113,1.242
534.383,1.242
534.653,1.233
534.923,1.237
535.193,1.244
535.463,1.246
535.733,1.254
536.004,1.256
536.274,1.254
536.544,1.251
536.814,1.241
537.085,1.233
537.355,1.229
537.626,1.239
537.896,1.241
538.166,1.243
538.437,1.244
538.707,1.238
538.978,1.236
539.249,1.242
539.519,1.250
539.790,1.234
540.061,1.216
540.331,1.223
540.602,1.233
540.873,1.239
541.144,1.240
541.414,1.237
541.685,1.239
541.956,1.235
542.227,1.233
542.498,1.227
542.769,1.216
543.040,1.220
543.311,1.229
543.582,1.238
543.853,1.238
544.124,1.232
544.396,1.236
544.667,1.242
544.938,1.237
545.209,1.224
545.480,1.201
545.752,1.210
546.023,1.220
546.294,1.220
546.566,1.213
546.837,1.211
547.109,1.203
547.380,1.204
547.652,1.201
547.923,1.203
548.195,1.209
548.466,1.224
548.738,1.241
549.009,1.248
549.281,1.236
549.553,1.228
549.824,1.216
550.096,1.210
550.368,1.219
550.640,1.225
550.911,1.217
551.183,1.226
551.455,1.236
551.727,1.245
551.999,1.232
552.271,1.219
552.543,1.214
552.815,1.217
553.087,1.222
553.359,1.232
553.631,1.235
553.903,1.237
554.175,1.231
554.447,1.235
554.719,1.234
554.991,1.223
555.263,1.222
555.535,1.227
555.808,1.224
556.080,1.221
556.352,1.211
556.624,1.215
556.897,1.218
557.169,1.214
557.441,1.219
557.714,1.218
557.986,1.208
558.258,1.213
558.531,1.215
558.803,1.223
559.076,1.224
559.348,1.219
559.621,1.209
559.893,1.201
560.166,1.211
560.438,1.204
560.711,1.198
560.983,1.196
561.256,1.200
561.528,1.213
561.801,1.218
562.074,1.205
562.346,1.202
562.619,1.218
562.892,1.224
563.164,1.220
563.437,1.220
563.710,1.217
563.983,1.215
564.255,1.209
564.528,1.205
564.801,1.216
565.074,1.221
565.346,1.215
565.619,1.213
565.892,1.221
566.165,1.231
566.438,1.220
566.711,1.209
566.984,1.207
567.257,1.202
567.529,1.196
567.802,1.211
568.075,1.222
568.348,1.216
568.621,1.215
568.894,1.218
569.167,1.211
569.440,1.211
569.713,1.203
569.986,1.185
570.259,1.193
570.532,1.199
570.805,1.200
571.078,1.209
571.351,1.207
571.625,1.210
571.898,1.208
572.171,1.196
572.444,1.188
572.717,1.195
572.990,1.210
573.263,1.201
573.536,1.191
573.809,1.184
574.083,1.176
574.356,1.174
574.629,1.186
574.902,1.197
575.175,1.200
575.448,1.186
575.721,1.178
575.995,1.177
576.268,1.188
576.541,1.197
576.814,1.211
577.087,1.217
577.361,1.204
577.634,1.208
577.907,1.204
578.180,1.187
578.453,1.183
578.727,1.185
579.000,1.177
579.273,1.180
579.546,1.194
579.820,1.200
580.093,1.201
580.366,1.194
580.639,1.185
580.913,1.185
581.186,1.192
581.459,1.190
581.732,1.188
582.005,1.181
582.279,1.180
582.552,1.179
582.825,1.181
583.098,1.180
583.372,1.186
583.645,1.190
583.918,1.184
584.191,1.186
584.464,1.190
584.738,1.188
585.011,1.191
585.284,1.192
585.557,1.188
585.831,1.186
586.104,1.194
586.377,1.203
586.650,1.214
586.923,1.214
587.196,1.209
587.470,1.207
587.743,1.193
588.016,1.187
588.289,1.185
588.562,1.200
588.835,1.210
589.109,1.198
589.382,1.190
589.655,1.191
589.928,1.186
590.201,1.180
590.474,1.188
590.747,1.203
591.020,1.205
591.293,1.208
591.567,1.210
591.840,1.198
592.113,1.192
592.386,1.192
592.659,1.180
592.932,1.170
593.205,1.178
593.478,1.184
593.751,1.175
594.024,1.179
594.297,1.180
594.570,1.170
594.843,1.172
595.116,1.179
595.389,1.183
595.662,1.178
595.934,1.176
596.207,1.183
596.480,1.194
596.753,1.195
597.026,1.194
597.299,1.193
597.572,1.198
597.844,1.193
598.117,1.178
598.390,1.173
598.663,1.168
598.936,1.169
599.208,1.183
599.481,1.189
599.754,1.197
600.026,1.193
600.299,1.171
600.572,1.160
600.844,1.161
601.117,1.150
601.390,1.151
601.662,1.158
601.935,1.155
602.207,1.150
602.480,1.161
602.752,1.174
603.025,1.172
603.297,1.167
603.570,1.170
603.842,1.181
604.115,1.194
604.387,1.181
604.660,1.182
604.932,1.174
605.204,1.176
605.477,1.180
605.749,1.186
606.021,1.193
606.294,1.201
606.566,1.195
606.838,1.179
607.110,1.184
607.383,1.181
607.655,1.182
607.927,1.185
608.199,1.193
608.471,1.193
608.743,1.188
609.015,1.182
609.287,1.180
609.559,1.181
609.831,1.180
610.103,1.184
610.375,1.176
610.647,1.172
610.919,1.164
611.191,1.165
611.463,1.175
611.735,1.181
612.007,1.177
612.278,1.171
612.550,1.175
612.822,1.187
613.094,1.187
613.365,1.182
613.637,1.180
613.909,1.182
614.180,1.183
614.452,1.179
614.723,1.179
614.995,1.175
615.266,1.174
615.538,1.185
615.809,1.197
616.081,1.191
616.352,1.184
616.623,1.176
616.895,1.179
617.166,1.174
617.437,1.163
617.709,1.163
617.980,1.172
618.251,1.181
618.522,1.185
618.793,1.190
619.065,1.198
619.336,1.204
619.607,1.186
619.878,1.188
620.149,1.196
620.420,1.194
620.691,1.188
620.962,1.189
621.232,1.199
621.503,1.191
621.774,1.171
622.045,1.180
622.316,1.184
622.586,1.194
622.857,1.203
623.128,1.208
623.398,1.203
623.669,1.198
623.940,1.184
624.210,1.167
624.481,1.170
624.751,1.185
625.021,1.179
625.292,1.168
625.562,1.172
625.833,1.170
626.103,1.164
626.373,1.161
626.643,1.158
626.914,1.159
627.184,1.168
627.454,1.179
627.724,1.179
627.994,1.175
628.264,1.172
628.534,1.173
628.804,1.169
629.074,1.176
629.344,1.185
629.614,1.182
629.884,1.172
630.154,1.164
630.424,1.154
630.693,1.141
630.963,1.144
631.233,1.138
631.502,1.141
631.772,1.158
632.041,1.176
632.311,1.184
632.581,1.181
632.850,1.174
633.119,1.158
633.389,1.146
633.658,1.142
633.928,1.148
634.197,1.157
634.466,1.161
634.735,1.174
635.004,1.180
635.274,1.171
635.543,1.168
635.812,1.174
636.081,1.175
636.350,1.173
636.619,1.176
636.888,1.179
637.157,1.180
637.426,1.180
637.694,1.182
637.963,1.177
638.232,1.172
638.501,1.171
638.769,1.164
639.038,1.174
639.307,1.181
639.575,1.186
639.844,1.191
640.112,1.178
640.381,1.169
640.649,1.160
640.917,1.168
641.186,1.168
641.454,1.163
641.722,1.169
641.991,1.158
642.259,1.155
642.527,1.147
642.795,1.159
643.063,1.160
643.331,1.148
643.599,1.157
643.867,1.165
644.135,1.170
644.403,1.171
644.671,1.178
644.939,1.178
645.206,1.179
645.474,1.180
645.742,1.173
646.009,1.161
646.277,1.157
646.545,1.161
646.812,1.171
647.080,1.184
647.347,1.186
647.615,1.186
647.882,1.176
648.149,1.159
648.417,1.158
648.684,1.158
648.951,1.164
649.219,1.171
649.486,1.172
649.753,1.162
650.020,1.153
650.287,1.152
650.554,1.155
650.821,1.158
651.088,1.158
651.355,1.155
651.622,1.160
651.889,1.152
652.155,1.153
652.422,1.155
652.689,1.158
652.956,1.169
653.222,1.169
653.489,1.180
653.755,1.200
654.022,1.189
654.288,1.167
654.555,1.164
654.821,1.169
655.088,1.173
655.354,1.172
655.620,1.176
655.887,1.182
656.153,1.185
656.419,1.186
656.685,1.179
656.951,1.174
657.217,1.174
657.483,1.177
657.749,1.170
658.015,1.170
658.281,1.167
658.547,1.158
658.813,1.151
659.079,1.142
659.345,1.145
659.610,1.148
659.876,1.148
660.142,1.154
660.407,1.158
660.673,1.162
660.939,1.167
661.204,1.173
661.470,1.158
661.735,1.156
662.000,1.157
662.266,1.161
662.531,1.155
662.796,1.152
663.062,1.147
663.327,1.141
663.592,1.140
663.857,1.150
664.122,1.149
664.388,1.153
664.653,1.155
664.918,1.158
665.183,1.151
665.448,1.147
665.712,1.158
665.977,1.165
666.242,1.171
666.507,1.158
666.772,1.136
667.037,1.134
667.301,1.142
667.566,1.150
667.831,1.153
668.095,1.153
668.360,1.151
668.624,1.151
668.889,1.143
669.153,1.154
669.418,1.150
669.682,1.153
669.946,1.156
670.211,1.158
670.475,1.167
670.739,1.176
671.004,1.182
671.268,1.196
671.532,1.222
671.796,1.213
672.060,1.177
672.324,1.184
672.588,1.190
672.852,1.196
673.116,1.205
673.380,1.244
673.644,1.234
673.908,1.167
674.172,1.162
674.436,1.168
674.700,1.171
674.963,1.169
675.227,1.176
675.491,1.166
675.754,1.153
676.018,1.161
676.282,1.164
676.545,1.169
676.809,1.160
677.072,1.151
677.336,1.147
677.599,1.151
677.863,1.158
678.126,1.149
678.389,1.158
678.653,1.169
678.916,1.169
679.179,1.157
679.442,1.151
679.706,1.158
679.969,1.163
680.232,1.167
680.495,1.174
680.758,1.184
681.021,1.174
681.284,1.161
681.547,1.155
681.810,1.162
682.073,1.178
682.336,1.182
682.599,1.174
682.862,1.166
683.125,1.169
683.388,1.171
683.651,1.176
683.913,1.170
684.176,1.163
684.439,1.149
684.702,1.148
684.964,1.141
685.227,1.143
685.490,1.151
685.752,1.165
686.015,1.177
686.277,1.166
686.540,1.164
686.802,1.153
687.065,1.150
687.327,1.160
687.590,1.165
687.852,1.153
688.115,1.140
688.377,1.135
688.639,1.138
688.902,1.138
689.164,1.143
689.426,1.155
689.689,1.164
689.951,1.166
690.213,1.161
690.475,1.156
690.737,1.158
691.000,1.151
691.262,1.148
691.524,1.152
691.786,1.163
692.048,1.174
692.310,1.173
692.572,1.158
692.834,1.155
693.096,1.150
693.358,1.157
693.620,1.165
693.882,1.171
694.144,1.173
694.406,1.161
694.668,1.156
694.930,1.157
695.192,1.153
695.453,1.157
695.715,1.165
695.977,1.163
696.239,1.154
696.501,1.153
696.762,1.160
697.024,1.168
697.286,1.157
697.548,1.151
697.809,1.150
698.071,1.148
698.333,1.142
698.594,1.146
698.856,1.148
699.118,1.153
699.379,1.151
699.641,1.154
699.902,1.160
700.164,1.165
700.426,1.146
700.687,1.142
700.949,1.141
701.210,1.141
701.472,1.141
701.733,1.141
701.995,1.136
702.256,1.141
702.518,1.147
702.779,1.141
703.041,1.144
703.302,1.164
703.563,1.164
703.825,1.151
704.086,1.150
704.348,1.143
704.609,1.143
704.871,1.154
705.132,1.166
705.393,1.161
705.655,1.147
705.916,1.153
706.177,1.151
706.439,1.144
706.700,1.142
706.961,1.142
707.223,1.146
707.484,1.141
707.745,1.117
708.007,1.114
708.268,1.116
708.529,1.097
708.790,1.086
709.052,1.080
709.313,1.077
709.574,1.078
709.835,1.074
710.097,1.071
710.358,1.062
710.619,1.052
710.881,1.049
711.142,1.053
711.403,1.049
711.664,1.052
711.926,1.052
712.187,1.053
712.448,1.062
712.709,1.065
712.970,1.067
713.232,1.070
713.493,1.072
713.754,1.073
714.015,1.074
714.277,1.076
714.538,1.076
714.799,1.091
715.060,1.095
715.322,1.091
715.583,1.089
715.844,1.082
716.105,1.075
716.367,1.070
716.628,1.072
716.889,1.072
717.150,1.058
717.411,1.043
717.673,1.044
717.934,1.056
718.195,1.063
718.457,1.062
718.718,1.048
718.979,1.045
719.240,1.049
719.502,1.059
719.763,1.060
720.024,1.063
720.286,1.068
720.547,1.066
720.808,1.055
721.069,1.064
721.331,1.063
721.592,1.070
721.853,1.077
722.115,1.073
722.376,1.074
722.638,1.071
722.899,1.065
723.160,1.068
723.422,1.069
723.683,1.065
723.944,1.066
724.206,1.067
724.467,1.057
724.729,1.062
724.990,1.067
725.252,1.077
725.513,1.075
725.775,1.056
726.036,1.051
726.298,1.052
726.559,1.054
726.821,1.065
727.082,1.067
727.344,1.063
727.605,1.056
727.867,1.048
728.128,1.049
728.390,1.058
728.652,1.056
728.913,1.069
729.175,1.074
729.436,1.069
729.698,1.071
729.960,1.074
730.221,1.067
730.483,1.060
730.745,1.056
731.007,1.056
731.268,1.051
731.530,1.056
731.792,1.057
732.054,1.056
732.315,1.053
732.577,1.059
732.839,1.056
733.101,1.051
733.363,1.051
733.625,1.045
733.887,1.047
734.149,1.051
734.411,1.054
734.673,1.053
734.935,1.056
735.197,1.054
735.459,1.059
735.721,1.067
735.983,1.064
736.245,1.052
736.507,1.055
736.769,1.063
737.031,1.068
737.293,1.066
737.555,1.053
737.818,1.045
738.080,1.039
738.342,1.041
738.604,1.044
738.867,1.050
739.129,1.042
739.391,1.036
739.654,1.042
739.916,1.048
740.178,1.054
740.441,1.061
740.703,1.064
740.966,1.049
741.228,1.048
741.491,1.050
741.753,1.050
742.016,1.057
742.278,1.056
742.541,1.059
742.804,1.063
743.066,1.065
743.329,1.066
743.592,1.059
743.854,1.045
744.117,1.058
744.380,1.066
744.643,1.061
744.905,1.049
745.168,1.053
745.431,1.054
745.694,1.045
745.957,1.046
746.220,1.040
746.483,1.036
746.746,1.037
747.009,1.043
747.272,1.059
747.535,1.074
747.798,1.074
748.061,1.064
748.324,1.050
748.588,1.042
748.851,1.045
749.114,1.050
749.377,1.051
749.641,1.056
749.904,1.050
750.167,1.056
750.431,1.070
750.694,1.068
750.958,1.073
751.221,1.068
751.485,1.048
751.748,1.040
752.012,1.051
752.275,1.059
752.539,1.068
752.803,1.059
753.066,1.053
753.330,1.049
753.594,1.047
753.857,1.045
754.121,1.039
754.385,1.051
754.649,1.067
754.913,1.062
755.177,1.074
755.441,1.076
755.705,1.066
755.969,1.057
756.233,1.058
756.497,1.057
756.761,1.055
757.025,1.056
757.289,1.057
757.553,1.060
757.818,1.058
758.082,1.057
758.346,1.059
758.610,1.056
758.875,1.061
759.139,1.055
759.404,1.046
759.668,1.046
759.932,1.048
760.197,1.056
760.462,1.063
760.726,1.057
760.991,1.059
761.255,1.063
761.520,1.066
761.785,1.060
762.049,1.053
762.314,1.040
762.579,1.038
762.844,1.050
763.109,1.059
763.374,1.055
763.639,1.059
763.903,1.054
764.168,1.046
764.433,1.039
764.699,1.052
764.964,1.063
765.229,1.054
765.494,1.049
765.759,1.047
766.024,1.045
766.290,1.043
766.555,1.056
766.820,1.060
767.086,1.059
767.351,1.073
767.616,1.068
767.882,1.055
768.147,1.057
768.413,1.061
768.678,1.050
768.944,1.047
769.209,1.051
769.475,1.054
769.741,1.062
770.006,1.066
770.272,1.073
770.538,1.077
770.804,1.070
771.070,1.064
771.335,1.074
771.601,1.077
771.867,1.078
772.133,1.070
772.399,1.068
772.665,1.059
772.931,1.055
773.197,1.074
773.464,1.073
773.730,1.074
773.996,1.072
774.262,1.069
774.528,1.064
774.795,1.066
775.061,1.074
775.327,1.078
775.594,1.067
775.860,1.061
776.126,1.059
776.393,1.048
776.659,1.043
776.926,1.041
777.193,1.040
777.459,1.056
777.726,1.057
777.992,1.052
778.259,1.053
778.526,1.057
778.793,1.063
779.059,1.064
779.326,1.069
779.593,1.066
779.860,1.065
780.127,1.066
780.394,1.057
780.661,1.054
780.928,1.055
781.195,1.046
781.462,1.053
781.729,1.048
781.996,1.046
782.263,1.045
782.530,1.052
782.797,1.061
783.064,1.049
783.332,1.035
783.599,1.045
783.866,1.051
784.134,1.051
784.401,1.059
784.668,1.060
784.936,1.066
785.203,1.064
785.470,1.055
785.738,1.057
786.005,1.057
786.273,1.050
786.541,1.045
786.808,1.044
787.076,1.047
787.343,1.049
787.611,1.050
787.879,1.056
788.146,1.058
788.414,1.057
788.682,1.063
788.950,1.056
789.217,1.061
789.485,1.068
789.753,1.074
790.021,1.061
790.289,1.040
790.557,1.030
790.825,1.034
791.093,1.049
791.361,1.060
791.629,1.069
791.897,1.076
792.165,1.067
792.433,1.057
792.701,1.046
792.969,1.031
793.237,1.020
793.505,1.032
793.773,1.049
794.042,1.046
794.310,1.038
794.578,1.044
794.846,1.043
795.115,1.039
795.383,1.040
795.651,1.045
795.920,1.059
796.188,1.058
796.456,1.057
796.725,1.057
796.993,1.054
797.261,1.061
797.530,1.062
797.798,1.053
798.067,1.056
798.335,1.064
798.604,1.064
798.872,1.055
799.141,1.047
799.409,1.049
799.678,1.050
799.946,1.063
800.215,1.065
800.483,1.058
800.752,1.050
801.020,1.048
801.289,1.042
801.558,1.043
801.826,1.056
802.095,1.048
802.363,1.049
802.632,1.062
802.901,1.062
803.169,1.062
803.438,1.061
803.707,1.049
803.976,1.037
804.244,1.039
804.513,1.045
804.782,1.048
805.050,1.038
805.319,1.046
805.588,1.059
805.857,1.064
806.125,1.062
806.394,1.057
806.663,1.050
806.931,1.043
807.200,1.038
807.469,1.040
807.738,1.043
808.006,1.042
808.275,1.051
808.544,1.064
808.813,1.076
809.082,1.075
809.350,1.068
809.619,1.055
809.888,1.050
810.157,1.042
810.425,1.045
810.694,1.045
810.963,1.052
811.232,1.056
811.500,1.052
811.769,1.042
812.038,1.039
812.306,1.045
812.575,1.052
812.844,1.059
813.113,1.063
813.381,1.056
813.650,1.048
813.919,1.064
814.187,1.073
814.456,1.068
814.725,1.070
814.993,1.070
815.262,1.060
815.531,1.058
815.799,1.059
816.068,1.057
816.336,1.048
816.605,1.044
816.873,1.049
817.142,1.059
817.411,1.069
817.679,1.065
817.948,1.066
818.216,1.074
818.485,1.095
818.753,1.119
819.021,1.105
819.290,1.050
819.558,1.041
819.827,1.048
820.095,1.053
820.363,1.062
820.632,1.068
820.900,1.064
821.168,1.063
821.437,1.067
821.705,1.069
821.973,1.069
822.241,1.073
822.509,1.067
822.777,1.060
823.046,1.052
823.314,1.054
823.582,1.057
823.850,1.065
824.118,1.062
824.386,1.066
824.654,1.051
824.922,1.035
825.190,1.043
825.457,1.057
825.725,1.056
825.993,1.055
826.261,1.043
826.529,1.040
826.796,1.055
827.064,1.050
827.332,1.050
827.599,1.051
827.867,1.058
828.134,1.064
828.402,1.056
828.669,1.039
828.937,1.038
829.204,1.040
829.471,1.062
829.739,1.071
830.006,1.067
830.273,1.063
830.540,1.059
830.807,1.051
831.075,1.041
831.342,1.056
831.609,1.062
831.876,1.058
832.142,1.062
832.409,1.064
832.676,1.062
832.943,1.052
833.210,1.052
833.476,1.057
833.743,1.059
834.010,1.067
834.276,1.059
834.543,1.040
834.809,1.043
835.076,1.045
835.342,1.040
835.608,1.050
835.874,1.062
836.141,1.050
836.407,1.042
836.673,1.048
836.939,1.045
837.205,1.041
837.471,1.042
837.737,1.038
838.002,1.049
838.268,1.051
838.534,1.051
838.799,1.052
839.065,1.051
839.330,1.054
839.596,1.056
839.861,1.058
840.127,1.058
840.392,1.060
840.657,1.055
840.922,1.053
841.187,1.065
841.452,1.063
841.717,1.063
841.982,1.063
842.247,1.054
842.511,1.052
842.776,1.057
843.041,1.059
843.305,1.050
843.570,1.038
843.834,1.046
844.098,1.044
844.362,1.044
844.627,1.045
844.891,1.039
845.155,1.045
845.419,1.057
845.682,1.063
845.946,1.065
846.210,1.069
846.474,1.067
846.737,1.063
847.001,1.069
847.264,1.052
847.527,1.042
847.790,1.046
848.054,1.047
848.317,1.040
848.580,1.042
848.843,1.049
849.105,1.056
849.368,1.067
849.631,1.071
849.893,1.069
850.156,1.076
850.418,1.080
850.680,1.066
850.943,1.053
851.205,1.063
851.467,1.074
851.729,1.071
851.991,1.073
852.252,1.069
852.514,1.079
852.776,1.078
853.037,1.074
853.298,1.074
853.560,1.064
853.821,1.048
854.082,1.039
854.343,1.041
854.604,1.067
854.865,1.089
855.126,1.094
855.386,1.089
855.647,1.088
855.907,1.077
856.168,1.066
856.428,1.064
856.688,1.064
856.948,1.054
857.208,1.032
857.468,1.031
857.727,1.044
857.987,1.043
858.247,1.049
858.506,1.056
858.765,1.066
859.024,1.053
859.284,1.039
859.543,1.045
859.801,1.037
860.060,1.039
860.319,1.056
860.577,1.069
860.836,1.070
861.094,1.071
861.352,1.069
861.611,1.062
861.869,1.056
862.127,1.048
862.384,1.050
862.642,1.055
862.900,1.054
863.157,1.070
863.414,1.076
863.672,1.066
863.929,1.050
864.186,1.042
864.443,1.046
864.699,1.057
864.956,1.054
865.212,1.052
865.469,1.048
865.725,1.054
865.981,1.061
866.237,1.058
866.493,1.055
866.749,1.052
867.005,1.041
867.260,1.042
867.516,1.042
867.771,1.039
868.026,1.039
868.282,1.055
868.536,1.065
868.791,1.058
869.046,1.043
869.301,1.040
869.555,1.051
869.809,1.062
870.064,1.074
870.318,1.066
870.572,1.060
870.826,1.059
871.079,1.038
871.333,1.047
871.586,1.053
871.840,1.054
872.093,1.056
872.346,1.065
872.599,1.084
872.852,1.096
873.105,1.097
873.357,1.088
873.610,1.074
873.862,1.071
874.114,1.071
874.366,1.072
874.618,1.068
874.870,1.055
875.121,1.043
875.373,1.043
875.624,1.047
875.876,1.046
876.127,1.040
876.378,1.042
876.629,1.049
876.879,1.046
877.130,1.060
877.381,1.059
877.631,1.048
877.881,1.045
878.131,1.053
878.381,1.059
878.631,1.072
878.881,1.080
879.130,1.071
879.380,1.068
879.629,1.059
879.878,1.052
880.127,1.049
880.376,1.052
880.625,1.064
880.873,1.073
881.122,1.073
881.370,1.066
881.618,1.060
881.866,1.047
882.114,1.049
882.362,1.049
882.610,1.045
882.857,1.048
883.105,1.050
883.352,1.053
883.599,1.047
883.846,1.047
884.093,1.049
884.340,1.050
884.586,1.057
884.833,1.065
885.079,1.059
885.325,1.056
885.571,1.050
885.817,1.060
886.063,1.067
886.309,1.065
886.554,1.065
886.800,1.075
887.045,1.072
887.290,1.063
887.535,1.045
887.780,1.041
888.025,1.049
888.270,1.063
888.514,1.072
888.758,1.072
889.003,1.067
889.247,1.053
889.491,1.039
889.735,1.059
889.978,1.073
890.222,1.072
890.465,1.066
890.709,1.067
890.952,1.055
891.195,1.043
891.438,1.043
891.681,1.053
891.923,1.049
892.166,1.044
892.408,1.048
892.651,1.051
892.893,1.046
893.135,1.045
893.377,1.047
893.619,1.041
893.861,1.043
894.102,1.053
894.344,1.064
894.585,1.078
894.826,1.088
895.067,1.088
895.308,1.076
895.549,1.066
895.790,1.054
896.031,1.049
896.271,1.053
896.512,1.067
896.752,1.076
896.992,1.074
897.232,1.068
897.472,1.056
897.712,1.059
897.952,1.076
898.191,1.082
898.431,1.077
898.670,1.084
898.910,1.087
899.149,1.075
899.388,1.085
899.627,1.092
899.866,1.079
900.105,1.071
900.343,1.056
900.582,1.059
900.820,1.067
901.059,1.082
901.297,1.097
901.535,1.079
901.773,1.058
902.011,1.048
902.249,1.040
902.487,1.030
902.725,1.035
902.963,1.052
903.200,1.056
903.438,1.050
903.675,1.054
903.912,1.054
904.150,1.055
904.387,1.068
904.624,1.057
904.861,1.041
905.098,1.041
905.334,1.042
905.571,1.046
905.808,1.042
906.045,1.051
906.281,1.062
906.518,1.058
906.754,1.053
906.990,1.069
907.227,1.069
907.463,1.053
907.699,1.048
907.935,1.052
908.171,1.056
908.407,1.058
908.643,1.055
908.879,1.063
909.115,1.073
909.350,1.080
909.586,1.073
909.822,1.073
910.057,1.075
910.293,1.091
910.528,1.107
910.764,1.093
910.999,1.089
911.235,1.095
911.470,1.085
911.706,1.086
911.941,1.081
912.176,1.072
912.412,1.064
912.647,1.060
912.882,1.067
913.117,1.064
913.352,1.060
913.588,1.050
913.823,1.044
914.058,1.041
914.293,1.047
914.528,1.052
914.763,1.046
914.999,1.047
915.234,1.048
915.469,1.046
915.704,1.049
915.939,1.050
916.174,1.039
916.409,1.040
916.645,1.054
916.880,1.071
917.115,1.073
917.350,1.063
917.586,1.055
917.821,1.064
918.056,1.065
918.292,1.074
918.527,1.071
918.763,1.060
918.998,1.050
919.234,1.057
919.469,1.081
919.705,1.078
919.940,1.062
920.176,1.054
920.412,1.059
920.648,1.072
920.884,1.064
921.120,1.061
921.356,1.064
921.592,1.063
921.828,1.057
922.065,1.059
922.301,1.065
922.537,1.069
922.774,1.075
923.011,1.070
923.247,1.058
923.484,1.059
923.721,1.071
923.958,1.079
924.195,1.075
924.433,1.071
924.670,1.064
924.908,1.052
925.145,1.052
925.383,1.063
925.621,1.058
925.859,1.055
926.097,1.066
926.335,1.065
926.574,1.059
926.813,1.065
927.051,1.067
927.290,1.062
927.529,1.075
927.769,1.094
928.008,1.094
928.248,1.073
928.487,1.053
928.727,1.060
928.967,1.075
929.208,1.081
929.448,1.075
929.689,1.072
929.930,1.070
930.171,1.061
930.413,1.056
930.654,1.060
930.896,1.054
931.138,1.048
931.380,1.044
931.623,1.050
931.865,1.060
932.108,1.070
932.352,1.060
932.595,1.061
932.839,1.069
933.083,1.070
933.327,1.068
933.571,1.065
933.816,1.058
934.061,1.066
934.307,1.063
934.552,1.049
934.798,1.042
935.045,1.056
935.291,1.059
935.538,1.061
935.785,1.071
936.033,1.068
936.281,1.070
936.529,1.077
936.777,1.074
937.026,1.065
937.275,1.054
937.525,1.047
937.775,1.042
938.025,1.045
938.276,1.039
938.527,1.041
938.778,1.051
939.030,1.048
939.282,1.050
939.535,1.051
939.788,1.057
940.041,1.054
940.295,1.049
940.550,1.047
940.804,1.054
941.059,1.065
941.315,1.056
941.571,1.044
941.828,1.049
942.085,1.054
942.342,1.055
942.600,1.061
942.858,1.051
943.117,1.043
943.377,1.043
943.636,1.051
943.897,1.048
944.158,1.055
944.419,1.058
944.681,1.057
944.944,1.056
945.207,1.060
945.470,1.062
945.734,1.064
945.999,1.071
946.264,1.079
946.530,1.080
946.797,1.075
947.064,1.068
947.331,1.065
947.600,1.060
947.869,1.056
948.138,1.053
948.408,1.049
948.679,1.050
948.950,1.064
949.222,1.062
949.495,1.050
949.768,1.055
950.043,1.066
