Wavelength (nm),Intensity B10.2,,C:/Users/Brend/Desktop/LED Spectras v2/Blinds/-Interference/Spectrometer Data (Newer).sp,,,B10.2,
379.792,1.581,,2018-07-02 14:40:29,,Integration Time,100 ms,
380.000,1.561,,Analyze Light,,Number of Scans to Average,25,
380.209,1.548,,,,Smoothing,0,
380.418,1.563
380.627,1.584
380.837,1.591
381.048,1.599
381.259,1.599
381.471,1.592
381.683,1.592
381.896,1.599
382.110,1.597
382.324,1.586
382.538,1.618
382.753,1.625
382.969,1.612
383.185,1.589
383.402,1.594
383.619,1.607
383.837,1.628
384.055,1.648
384.274,1.662
384.493,1.661
384.712,1.664
384.932,1.664
385.153,1.661
385.374,1.651
385.596,1.657
385.818,1.665
386.040,1.682
386.263,1.691
386.487,1.688
386.710,1.680
386.935,1.680
387.159,1.669
387.385,1.677
387.610,1.675
387.836,1.665
388.063,1.669
388.289,1.690
388.517,1.687
388.744,1.677
388.972,1.675
389.201,1.698
389.430,1.703
389.659,1.700
389.889,1.705
390.119,1.709
390.349,1.703
390.580,1.708
390.811,1.721
391.042,1.718
391.274,1.714
391.507,1.719
391.739,1.727
391.972,1.729
392.205,1.726
392.439,1.731
392.673,1.737
392.907,1.740
393.142,1.748
393.377,1.748
393.612,1.752
393.848,1.752
394.084,1.765
394.320,1.763
394.557,1.755
394.794,1.775
395.031,1.778
395.269,1.778
395.507,1.788
395.745,1.784
395.983,1.776
396.222,1.788
396.461,1.801
396.700,1.812
396.940,1.827
397.180,1.827
397.420,1.818
397.660,1.814
397.901,1.805
398.142,1.797
398.383,1.799
398.625,1.797
398.866,1.801
399.108,1.830
399.351,1.851
399.593,1.861
399.836,1.849
400.079,1.838
400.322,1.832
400.566,1.832
400.809,1.823
401.053,1.822
401.298,1.825
401.542,1.833
401.787,1.854
402.031,1.867
402.277,1.867
402.522,1.864
402.767,1.866
403.013,1.859
403.259,1.853
403.505,1.864
403.752,1.869
403.998,1.867
404.245,1.866
404.492,1.897
404.739,1.906
404.986,1.906
405.234,1.918
405.482,1.921
405.730,1.913
405.978,1.903
406.226,1.897
406.475,1.879
406.723,1.882
406.972,1.898
407.221,1.905
407.470,1.910
407.720,1.919
407.969,1.915
408.219,1.893
408.469,1.923
408.719,1.939
408.969,1.932
409.219,1.929
409.470,1.939
409.720,1.928
409.971,1.941
410.222,1.945
410.473,1.942
410.724,1.949
410.976,1.958
411.227,1.968
411.479,1.973
411.731,1.957
411.983,1.945
412.235,1.947
412.487,1.947
412.740,1.937
412.992,1.954
413.245,1.968
413.497,1.965
413.750,1.958
414.003,1.963
414.257,1.962
414.510,1.962
414.763,1.958
415.017,1.968
415.270,1.972
415.524,1.972
415.778,1.972
416.032,1.975
416.286,1.983
416.540,1.985
416.794,1.973
417.049,1.991
417.303,1.989
417.558,1.988
417.812,1.989
418.067,1.991
418.322,1.991
418.577,1.994
418.832,1.981
419.088,1.981
419.343,1.976
419.598,1.993
419.854,1.981
420.109,1.993
420.365,2.002
420.621,2.019
420.876,2.015
421.132,2.017
421.388,2.007
421.645,2.006
421.901,2.014
422.157,2.006
422.413,2.002
422.670,2.014
422.926,2.012
423.183,2.024
423.439,2.025
423.696,2.037
423.953,2.046
424.210,2.069
424.467,2.066
424.724,2.061
424.981,2.071
425.238,2.064
425.495,2.074
425.753,2.107
426.010,2.120
426.267,2.136
426.525,2.152
426.782,2.182
427.040,2.183
427.298,2.199
427.555,2.229
427.813,2.255
428.071,2.281
428.329,2.297
428.587,2.315
428.845,2.343
429.103,2.383
429.361,2.409
429.619,2.449
429.878,2.491
430.136,2.538
430.394,2.590
430.653,2.646
430.911,2.717
431.170,2.777
431.428,2.836
431.687,2.885
431.946,2.952
432.204,3.020
432.463,3.105
432.722,3.201
432.981,3.280
433.240,3.370
433.499,3.487
433.758,3.596
434.017,3.725
434.276,3.813
434.535,3.912
434.794,4.023
435.053,4.177
435.312,4.313
435.572,4.462
435.831,4.599
436.090,4.786
436.350,4.964
436.609,5.154
436.869,5.340
437.128,5.545
437.388,5.724
437.647,5.921
437.907,6.123
438.166,6.361
438.426,6.559
438.686,6.803
438.946,7.041
439.205,7.305
439.465,7.567
439.725,7.894
439.985,8.179
440.245,8.475
440.505,8.772
440.765,9.109
441.025,9.436
441.285,9.788
441.545,10.120
441.805,10.478
442.065,10.852
442.325,11.284
442.585,11.686
442.846,12.133
443.106,12.609
443.366,13.097
443.626,13.591
443.887,14.131
444.147,14.686
444.407,15.241
444.668,15.842
444.928,16.470
445.189,17.133
445.449,17.851
445.710,18.558
445.970,19.331
446.231,20.085
446.491,20.928
446.752,21.755
447.012,22.632
447.273,23.543
447.534,24.503
447.794,25.488
448.055,26.489
448.316,27.560
448.577,28.708
448.837,29.843
449.098,30.978
449.359,32.164
449.620,33.377
449.881,34.589
450.142,35.806
450.403,37.009
450.664,38.260
450.924,39.556
451.185,40.827
451.446,42.068
451.707,43.274
451.969,44.477
452.230,45.659
452.491,46.784
452.752,47.867
453.013,48.895
453.274,49.822
453.535,50.706
453.796,51.503
454.058,52.197
454.319,52.814
454.580,53.394
454.841,53.836
455.103,54.138
455.364,54.343
455.625,54.475
455.887,54.535
456.148,54.463
456.409,54.278
456.671,53.999
456.932,53.636
457.194,53.074
457.455,52.454
457.716,51.860
457.978,51.106
458.239,50.300
458.501,49.372
458.763,48.456
459.024,47.456
459.286,46.403
459.547,45.369
459.809,44.306
460.071,43.126
460.332,41.960
460.594,40.910
460.856,39.775
461.117,38.691
461.379,37.607
461.641,36.532
461.903,35.486
462.164,34.532
462.426,33.578
462.688,32.648
462.950,31.810
463.212,30.976
463.474,30.195
463.736,29.413
463.998,28.718
464.260,28.096
464.522,27.486
464.784,26.904
465.046,26.343
465.308,25.832
465.570,25.359
465.832,24.891
466.094,24.474
466.356,24.067
466.618,23.691
466.880,23.279
467.142,22.888
467.405,22.536
467.667,22.191
467.929,21.867
468.191,21.532
468.454,21.201
468.716,20.858
468.978,20.534
469.241,20.151
469.503,19.792
469.765,19.437
470.028,19.101
470.290,18.743
470.552,18.403
470.815,18.069
471.077,17.714
471.340,17.354
471.602,16.962
471.865,16.602
472.128,16.213
472.390,15.842
472.653,15.482
472.915,15.106
473.178,14.769
473.441,14.387
473.703,13.998
473.966,13.608
474.229,13.263
474.492,12.913
474.755,12.554
475.017,12.176
475.280,11.867
475.543,11.543
475.806,11.240
476.069,10.886
476.332,10.554
476.595,10.232
476.858,9.955
477.121,9.654
477.384,9.351
477.647,9.086
477.910,8.850
478.173,8.594
478.436,8.366
478.699,8.117
478.962,7.928
479.226,7.697
479.489,7.499
479.752,7.298
480.015,7.136
480.279,6.960
480.542,6.786
480.805,6.624
481.069,6.471
481.332,6.291
481.595,6.147
481.859,5.998
482.122,5.900
482.386,5.768
482.649,5.621
482.913,5.495
483.177,5.368
483.440,5.210
483.704,5.074
483.967,4.967
484.231,4.892
484.495,4.778
484.759,4.685
485.022,4.563
485.286,4.461
485.550,4.335
485.814,4.238
486.078,4.091
486.342,4.008
486.606,3.919
486.869,3.826
487.133,3.738
487.397,3.687
487.662,3.616
487.926,3.536
488.190,3.450
488.454,3.383
488.718,3.289
488.982,3.222
489.246,3.126
489.511,3.053
489.775,2.965
490.039,2.888
490.304,2.825
490.568,2.756
490.832,2.681
491.097,2.655
491.361,2.610
491.626,2.554
491.890,2.505
492.155,2.470
492.419,2.418
492.684,2.392
492.949,2.341
493.213,2.292
493.478,2.258
493.743,2.232
494.008,2.173
494.272,2.131
494.537,2.094
494.802,2.081
495.067,2.066
495.332,2.058
495.597,2.037
495.862,2.015
496.127,1.986
496.392,1.968
496.657,1.934
496.922,1.903
497.187,1.888
497.452,1.874
497.718,1.854
497.983,1.858
498.248,1.835
498.513,1.807
498.779,1.794
499.044,1.804
499.310,1.797
499.575,1.768
499.841,1.753
500.106,1.748
500.372,1.732
500.637,1.703
500.903,1.708
501.168,1.722
501.434,1.706
501.700,1.688
501.966,1.669
502.231,1.661
502.497,1.652
502.763,1.646
503.029,1.630
503.295,1.625
503.561,1.617
503.827,1.612
504.093,1.610
504.359,1.604
504.625,1.595
504.891,1.592
505.157,1.571
505.423,1.565
505.690,1.545
505.956,1.521
506.222,1.519
506.489,1.537
506.755,1.558
507.021,1.565
507.288,1.568
507.554,1.558
507.821,1.538
508.087,1.540
508.354,1.543
508.621,1.560
508.887,1.524
509.154,1.508
509.421,1.503
509.687,1.485
509.954,1.459
510.221,1.462
510.488,1.465
510.755,1.472
511.022,1.486
511.289,1.485
511.556,1.464
511.823,1.464
512.090,1.460
512.357,1.468
512.624,1.460
512.891,1.451
513.159,1.439
513.426,1.433
513.693,1.434
513.960,1.436
514.228,1.429
514.495,1.436
514.763,1.439
515.030,1.433
515.298,1.421
515.565,1.415
515.833,1.429
516.100,1.425
516.368,1.403
516.636,1.408
516.904,1.402
517.171,1.408
517.439,1.402
517.707,1.392
517.975,1.385
518.243,1.394
518.511,1.400
518.779,1.385
519.047,1.382
519.315,1.405
519.583,1.397
519.851,1.377
520.119,1.381
520.387,1.381
520.656,1.379
520.924,1.392
521.192,1.389
521.461,1.376
521.729,1.372
521.997,1.379
522.266,1.377
522.534,1.379
522.803,1.389
523.071,1.394
523.340,1.382
523.609,1.364
523.877,1.359
524.146,1.366
524.415,1.369
524.684,1.379
524.952,1.377
525.221,1.358
525.490,1.366
525.759,1.377
526.028,1.369
526.297,1.359
526.566,1.348
526.835,1.346
527.104,1.348
527.373,1.363
527.642,1.358
527.912,1.348
528.181,1.340
528.450,1.341
528.719,1.343
528.989,1.353
529.258,1.361
529.528,1.364
529.797,1.354
530.067,1.354
530.336,1.363
530.606,1.345
530.875,1.341
531.145,1.332
531.414,1.340
531.684,1.354
531.954,1.354
532.224,1.345
532.493,1.338
532.763,1.320
533.033,1.322
533.303,1.337
533.573,1.346
533.843,1.341
534.113,1.317
534.383,1.311
534.653,1.311
534.923,1.325
535.193,1.335
535.463,1.333
535.733,1.343
536.004,1.340
536.274,1.343
536.544,1.345
536.814,1.335
537.085,1.324
537.355,1.325
537.626,1.340
537.896,1.337
538.166,1.335
538.437,1.340
538.707,1.330
538.978,1.327
539.249,1.335
539.519,1.338
539.790,1.333
540.061,1.315
540.331,1.325
540.602,1.337
540.873,1.338
541.144,1.338
541.414,1.333
541.685,1.330
541.956,1.332
542.227,1.332
542.498,1.324
542.769,1.317
543.040,1.325
543.311,1.337
543.582,1.343
543.853,1.333
544.124,1.327
544.396,1.340
544.667,1.337
544.938,1.324
545.209,1.315
545.480,1.302
545.752,1.319
546.023,1.330
546.294,1.332
546.566,1.322
546.837,1.325
547.109,1.322
547.380,1.325
547.652,1.327
547.923,1.322
548.195,1.319
548.466,1.327
548.738,1.340
549.009,1.343
549.281,1.322
549.553,1.319
549.824,1.317
550.096,1.304
550.368,1.317
550.640,1.324
550.911,1.314
551.183,1.320
551.455,1.341
551.727,1.359
551.999,1.348
552.271,1.324
552.543,1.320
552.815,1.320
553.087,1.325
553.359,1.335
553.631,1.333
553.903,1.333
554.175,1.330
554.447,1.332
554.719,1.324
554.991,1.324
555.263,1.325
555.535,1.328
555.808,1.328
556.080,1.330
556.352,1.319
556.624,1.320
556.897,1.322
557.169,1.322
557.441,1.322
557.714,1.317
557.986,1.312
558.258,1.311
558.531,1.309
558.803,1.311
559.076,1.312
559.348,1.317
559.621,1.307
559.893,1.309
560.166,1.317
560.438,1.307
560.711,1.304
560.983,1.304
561.256,1.299
561.528,1.309
561.801,1.325
562.074,1.328
562.346,1.332
562.619,1.348
562.892,1.340
563.164,1.328
563.437,1.332
563.710,1.335
563.983,1.322
564.255,1.304
564.528,1.309
564.801,1.328
565.074,1.335
565.346,1.319
565.619,1.315
565.892,1.328
566.165,1.330
566.438,1.315
566.711,1.302
566.984,1.301
567.257,1.294
567.529,1.296
567.802,1.314
568.075,1.322
568.348,1.322
568.621,1.311
568.894,1.324
569.167,1.320
569.440,1.319
569.713,1.304
569.986,1.298
570.259,1.302
570.532,1.302
570.805,1.311
571.078,1.319
571.351,1.314
571.625,1.317
571.898,1.311
572.171,1.289
572.444,1.289
572.717,1.302
572.990,1.314
573.263,1.322
573.536,1.299
573.809,1.291
574.083,1.281
574.356,1.284
574.629,1.301
574.902,1.309
575.175,1.307
575.448,1.307
575.721,1.306
575.995,1.304
576.268,1.302
576.541,1.302
576.814,1.314
577.087,1.322
577.361,1.319
577.634,1.315
577.907,1.309
578.180,1.293
578.453,1.293
578.727,1.299
579.000,1.302
579.273,1.306
579.546,1.317
579.820,1.328
580.093,1.330
580.366,1.320
580.639,1.302
580.913,1.293
581.186,1.302
581.459,1.302
581.732,1.296
582.005,1.281
582.279,1.293
582.552,1.298
582.825,1.299
583.098,1.298
583.372,1.288
583.645,1.293
583.918,1.299
584.191,1.304
584.464,1.314
584.738,1.299
585.011,1.298
585.284,1.298
585.557,1.289
585.831,1.299
586.104,1.317
586.377,1.328
586.650,1.341
586.923,1.332
587.196,1.328
587.470,1.325
587.743,1.317
588.016,1.306
588.289,1.315
588.562,1.319
588.835,1.322
589.109,1.312
589.382,1.302
589.655,1.294
589.928,1.288
590.201,1.283
590.474,1.280
590.747,1.294
591.020,1.301
591.293,1.309
591.567,1.312
591.840,1.304
592.113,1.302
592.386,1.298
592.659,1.288
592.932,1.284
593.205,1.298
593.478,1.298
593.751,1.293
594.024,1.289
594.297,1.291
594.570,1.280
594.843,1.289
595.116,1.306
595.389,1.299
595.662,1.298
595.934,1.296
596.207,1.302
596.480,1.306
596.753,1.306
597.026,1.304
597.299,1.301
597.572,1.306
597.844,1.314
598.117,1.306
598.390,1.298
598.663,1.301
598.936,1.301
599.208,1.307
599.481,1.311
599.754,1.320
600.026,1.312
600.299,1.293
600.572,1.281
600.844,1.294
601.117,1.288
601.390,1.278
601.662,1.283
601.935,1.271
602.207,1.267
602.480,1.278
602.752,1.284
603.025,1.278
603.297,1.271
603.570,1.284
603.842,1.293
604.115,1.302
604.387,1.296
604.660,1.296
604.932,1.284
605.204,1.293
605.477,1.306
605.749,1.304
606.021,1.307
606.294,1.312
606.566,1.302
606.838,1.284
607.110,1.294
607.383,1.288
607.655,1.289
607.927,1.302
608.199,1.301
608.471,1.294
608.743,1.299
609.015,1.298
609.287,1.291
609.559,1.296
609.831,1.302
610.103,1.296
610.375,1.291
610.647,1.293
610.919,1.280
611.191,1.271
611.463,1.278
611.735,1.293
612.007,1.294
612.278,1.284
612.550,1.280
612.822,1.275
613.094,1.291
613.365,1.302
613.637,1.302
613.909,1.307
614.180,1.307
614.452,1.304
614.723,1.302
614.995,1.301
615.266,1.302
615.538,1.315
615.809,1.319
616.081,1.299
616.352,1.288
616.623,1.291
616.895,1.284
617.166,1.286
617.437,1.280
617.709,1.278
617.980,1.281
618.251,1.281
618.522,1.294
618.793,1.299
619.065,1.309
619.336,1.319
619.607,1.298
619.878,1.293
620.149,1.311
620.420,1.315
620.691,1.302
620.962,1.306
621.232,1.322
621.503,1.319
621.774,1.309
622.045,1.304
622.316,1.304
622.586,1.307
622.857,1.314
623.128,1.319
623.398,1.314
623.669,1.315
623.940,1.312
624.210,1.293
624.481,1.291
624.751,1.304
625.021,1.304
625.292,1.296
625.562,1.298
625.833,1.294
626.103,1.291
626.373,1.289
626.643,1.283
626.914,1.281
627.184,1.286
627.454,1.283
627.724,1.281
627.994,1.284
628.264,1.289
628.534,1.293
628.804,1.276
629.074,1.286
629.344,1.296
629.614,1.304
629.884,1.299
630.154,1.281
630.424,1.278
630.693,1.281
630.963,1.281
631.233,1.263
631.502,1.265
631.772,1.275
632.041,1.296
632.311,1.294
632.581,1.293
632.850,1.281
633.119,1.270
633.389,1.262
633.658,1.270
633.928,1.276
634.197,1.284
634.466,1.294
634.735,1.294
635.004,1.296
635.274,1.280
635.543,1.280
635.812,1.296
636.081,1.294
636.350,1.288
636.619,1.284
636.888,1.276
637.157,1.280
637.426,1.291
637.694,1.294
637.963,1.283
638.232,1.278
638.501,1.278
638.769,1.271
639.038,1.281
639.307,1.288
639.575,1.294
639.844,1.296
640.112,1.275
640.381,1.270
640.649,1.273
640.917,1.288
641.186,1.294
641.454,1.288
641.722,1.298
641.991,1.296
642.259,1.293
642.527,1.276
642.795,1.286
643.063,1.278
643.331,1.263
643.599,1.265
643.867,1.281
644.135,1.276
644.403,1.265
644.671,1.265
644.939,1.260
645.206,1.276
645.474,1.284
645.742,1.286
646.009,1.275
646.277,1.268
646.545,1.283
646.812,1.291
647.080,1.302
647.347,1.307
647.615,1.304
647.882,1.293
648.149,1.276
648.417,1.276
648.684,1.271
648.951,1.281
649.219,1.298
649.486,1.294
649.753,1.288
650.020,1.283
650.287,1.270
650.554,1.262
650.821,1.263
651.088,1.265
651.355,1.267
651.622,1.291
651.889,1.291
652.155,1.288
652.422,1.288
652.689,1.294
652.956,1.294
653.222,1.298
653.489,1.309
653.755,1.325
654.022,1.315
654.288,1.302
654.555,1.296
654.821,1.293
655.088,1.299
655.354,1.304
655.620,1.304
655.887,1.306
656.153,1.296
656.419,1.294
656.685,1.296
656.951,1.298
657.217,1.299
657.483,1.293
657.749,1.284
658.015,1.289
658.281,1.284
658.547,1.278
658.813,1.270
659.079,1.268
659.345,1.265
659.610,1.263
659.876,1.268
660.142,1.271
660.407,1.263
660.673,1.276
660.939,1.273
661.204,1.275
661.470,1.270
661.735,1.267
662.000,1.273
662.266,1.278
662.531,1.271
662.796,1.275
663.062,1.283
663.327,1.276
663.592,1.268
663.857,1.275
664.122,1.276
664.388,1.281
664.653,1.284
664.918,1.291
665.183,1.296
665.448,1.284
665.712,1.283
665.977,1.293
666.242,1.294
666.507,1.281
666.772,1.263
667.037,1.265
667.301,1.271
667.566,1.276
667.831,1.288
668.095,1.294
668.360,1.296
668.624,1.293
668.889,1.281
669.153,1.288
669.418,1.273
669.682,1.273
669.946,1.281
670.211,1.298
670.475,1.307
670.739,1.307
671.004,1.317
671.268,1.324
671.532,1.353
671.796,1.361
672.060,1.312
672.324,1.315
672.588,1.312
672.852,1.311
673.116,1.325
673.380,1.376
673.644,1.359
673.908,1.275
674.172,1.275
674.436,1.291
674.700,1.298
674.963,1.299
675.227,1.293
675.491,1.289
675.754,1.281
676.018,1.280
676.282,1.281
676.545,1.293
676.809,1.294
677.072,1.278
677.336,1.268
677.599,1.263
677.863,1.265
678.126,1.254
678.389,1.262
678.653,1.286
678.916,1.291
679.179,1.281
679.442,1.276
679.706,1.273
679.969,1.283
680.232,1.281
680.495,1.288
680.758,1.296
681.021,1.294
681.284,1.291
681.547,1.288
681.810,1.283
682.073,1.294
682.336,1.301
682.599,1.299
682.862,1.294
683.125,1.301
683.388,1.293
683.651,1.294
683.913,1.291
684.176,1.281
684.439,1.278
684.702,1.267
684.964,1.260
685.227,1.257
685.490,1.270
685.752,1.281
686.015,1.291
686.277,1.286
686.540,1.278
686.802,1.273
687.065,1.268
687.327,1.275
687.590,1.286
687.852,1.276
688.115,1.268
688.377,1.263
688.639,1.267
688.902,1.268
689.164,1.276
689.426,1.278
689.689,1.294
689.951,1.294
690.213,1.286
690.475,1.286
690.737,1.280
691.000,1.270
691.262,1.262
691.524,1.271
691.786,1.280
692.048,1.293
692.310,1.294
692.572,1.265
692.834,1.252
693.096,1.255
693.358,1.260
693.620,1.273
693.882,1.289
694.144,1.291
694.406,1.278
694.668,1.275
694.930,1.280
695.192,1.280
695.453,1.281
695.715,1.284
695.977,1.288
696.239,1.273
696.501,1.263
696.762,1.268
697.024,1.280
697.286,1.286
697.548,1.278
697.809,1.276
698.071,1.275
698.333,1.280
698.594,1.280
698.856,1.280
699.118,1.286
699.379,1.291
699.641,1.286
699.902,1.289
700.164,1.288
700.426,1.275
700.687,1.268
700.949,1.267
701.210,1.273
701.472,1.270
701.733,1.268
701.995,1.265
702.256,1.276
702.518,1.276
702.779,1.268
703.041,1.271
703.302,1.298
703.563,1.302
703.825,1.288
704.086,1.284
704.348,1.280
704.609,1.273
704.871,1.284
705.132,1.289
705.393,1.286
705.655,1.281
705.916,1.288
706.177,1.288
706.439,1.284
706.700,1.284
706.961,1.271
707.223,1.280
707.484,1.288
707.745,1.257
708.007,1.249
708.268,1.252
708.529,1.242
708.790,1.231
709.052,1.219
709.313,1.226
709.574,1.239
709.835,1.242
710.097,1.232
710.358,1.224
710.619,1.216
710.881,1.210
711.142,1.210
711.403,1.205
711.664,1.201
711.926,1.203
712.187,1.203
712.448,1.214
712.709,1.223
712.970,1.221
713.232,1.228
713.493,1.226
713.754,1.221
714.015,1.213
714.277,1.224
714.538,1.232
714.799,1.236
715.060,1.245
715.322,1.247
715.583,1.245
715.844,1.239
716.105,1.224
716.367,1.208
716.628,1.213
716.889,1.216
717.150,1.208
717.411,1.210
717.673,1.206
717.934,1.219
718.195,1.229
718.457,1.219
718.718,1.205
718.979,1.200
719.240,1.210
719.502,1.218
719.763,1.221
720.024,1.232
720.286,1.236
720.547,1.234
720.808,1.218
721.069,1.208
721.331,1.213
721.592,1.226
721.853,1.237
722.115,1.244
722.376,1.232
722.638,1.229
722.899,1.226
723.160,1.223
723.422,1.214
723.683,1.208
723.944,1.216
724.206,1.216
724.467,1.213
724.729,1.211
724.990,1.221
725.252,1.226
725.513,1.224
725.775,1.213
726.036,1.200
726.298,1.200
726.559,1.201
726.821,1.206
727.082,1.208
727.344,1.206
727.605,1.205
727.867,1.205
728.128,1.206
728.390,1.214
728.652,1.218
728.913,1.229
729.175,1.237
729.436,1.234
729.698,1.224
729.960,1.226
730.221,1.221
730.483,1.211
730.745,1.205
731.007,1.213
731.268,1.219
731.530,1.216
731.792,1.213
732.054,1.211
732.315,1.223
732.577,1.224
732.839,1.229
733.101,1.224
733.363,1.214
733.625,1.216
733.887,1.210
734.149,1.219
734.411,1.214
734.673,1.226
734.935,1.228
735.197,1.219
735.459,1.221
735.721,1.221
735.983,1.221
736.245,1.213
736.507,1.200
736.769,1.213
737.031,1.218
737.293,1.219
737.555,1.208
737.818,1.203
738.080,1.201
738.342,1.203
738.604,1.213
738.867,1.206
739.129,1.206
739.391,1.201
739.654,1.198
739.916,1.198
740.178,1.197
740.441,1.203
740.703,1.214
740.966,1.208
741.228,1.210
741.491,1.213
741.753,1.206
742.016,1.213
742.278,1.214
742.541,1.208
742.804,1.206
743.066,1.208
743.329,1.214
743.592,1.216
743.854,1.213
744.117,1.221
744.380,1.224
744.643,1.223
744.905,1.213
745.168,1.208
745.431,1.214
745.694,1.210
745.957,1.208
746.220,1.214
746.483,1.205
746.746,1.211
747.009,1.211
747.272,1.223
747.535,1.231
747.798,1.229
748.061,1.224
748.324,1.206
748.588,1.195
748.851,1.198
749.114,1.208
749.377,1.208
749.641,1.216
749.904,1.211
750.167,1.221
750.431,1.229
750.694,1.224
750.958,1.232
751.221,1.236
751.485,1.219
751.748,1.210
752.012,1.221
752.275,1.231
752.539,1.241
752.803,1.229
753.066,1.213
753.330,1.205
753.594,1.198
753.857,1.195
754.121,1.200
754.385,1.210
754.649,1.214
754.913,1.205
755.177,1.218
755.441,1.216
755.705,1.200
755.969,1.200
756.233,1.213
756.497,1.218
756.761,1.216
757.025,1.210
757.289,1.205
757.553,1.203
757.818,1.211
758.082,1.219
758.346,1.226
758.610,1.218
758.875,1.219
759.139,1.218
759.404,1.214
759.668,1.210
759.932,1.206
760.197,1.213
760.462,1.224
760.726,1.228
760.991,1.221
761.255,1.226
761.520,1.226
761.785,1.219
762.049,1.213
762.314,1.195
762.579,1.201
762.844,1.213
763.109,1.218
763.374,1.213
763.639,1.208
763.903,1.206
764.168,1.203
764.433,1.201
764.699,1.208
764.964,1.218
765.229,1.216
765.494,1.206
765.759,1.218
766.024,1.219
766.290,1.214
766.555,1.219
766.820,1.221
767.086,1.224
767.351,1.228
767.616,1.223
767.882,1.218
768.147,1.218
768.413,1.214
768.678,1.205
768.944,1.206
769.209,1.221
769.475,1.226
769.741,1.231
770.006,1.234
770.272,1.239
770.538,1.239
770.804,1.231
771.070,1.221
771.335,1.231
771.601,1.245
771.867,1.245
772.133,1.242
772.399,1.236
772.665,1.226
772.931,1.205
773.197,1.226
773.464,1.231
773.730,1.229
773.996,1.231
774.262,1.231
774.528,1.226
774.795,1.216
775.061,1.224
775.327,1.239
775.594,1.241
775.860,1.239
776.126,1.223
776.393,1.208
776.659,1.201
776.926,1.206
777.193,1.208
777.459,1.216
777.726,1.214
777.992,1.213
778.259,1.214
778.526,1.205
778.793,1.203
779.059,1.203
779.326,1.211
779.593,1.216
779.860,1.218
780.127,1.221
780.394,1.213
780.661,1.214
780.928,1.218
781.195,1.210
781.462,1.211
781.729,1.208
781.996,1.211
782.263,1.213
782.530,1.216
782.797,1.231
783.064,1.223
783.332,1.208
783.599,1.206
783.866,1.200
784.134,1.203
784.401,1.201
784.668,1.195
784.936,1.200
785.203,1.210
785.470,1.211
785.738,1.197
786.005,1.203
786.273,1.197
786.541,1.195
786.808,1.192
787.076,1.200
787.343,1.200
787.611,1.203
787.879,1.216
788.146,1.208
788.414,1.214
788.682,1.226
788.950,1.211
789.217,1.208
789.485,1.221
789.753,1.234
790.021,1.226
790.289,1.218
790.557,1.206
790.825,1.200
791.093,1.205
791.361,1.216
791.629,1.231
791.897,1.239
792.165,1.228
792.433,1.213
792.701,1.206
792.969,1.198
793.237,1.190
793.505,1.198
793.773,1.210
794.042,1.208
794.310,1.200
794.578,1.203
794.846,1.195
795.115,1.195
795.383,1.201
795.651,1.213
795.920,1.214
796.188,1.211
796.456,1.214
796.725,1.231
796.993,1.223
797.261,1.231
797.530,1.236
797.798,1.216
798.067,1.211
798.335,1.228
798.604,1.228
798.872,1.208
799.141,1.203
799.409,1.205
799.678,1.214
799.946,1.223
800.215,1.223
800.483,1.218
800.752,1.211
801.020,1.216
801.289,1.206
801.558,1.208
801.826,1.214
802.095,1.214
802.363,1.211
802.632,1.214
802.901,1.219
803.169,1.216
803.438,1.216
803.707,1.203
803.976,1.200
804.244,1.203
804.513,1.206
804.782,1.210
805.050,1.206
805.319,1.210
805.588,1.223
805.857,1.224
806.125,1.229
806.394,1.223
806.663,1.218
806.931,1.206
807.200,1.198
807.469,1.206
807.738,1.208
808.006,1.210
808.275,1.208
808.544,1.226
808.813,1.228
809.082,1.226
809.350,1.214
809.619,1.205
809.888,1.205
810.157,1.195
810.425,1.190
810.694,1.190
810.963,1.197
811.232,1.208
811.500,1.206
811.769,1.208
812.038,1.201
812.306,1.210
812.575,1.221
812.844,1.228
813.113,1.226
813.381,1.214
813.650,1.203
813.919,1.214
814.187,1.211
814.456,1.203
814.725,1.213
814.993,1.218
815.262,1.205
815.531,1.213
815.799,1.213
816.068,1.213
816.336,1.208
816.605,1.205
816.873,1.216
817.142,1.228
817.411,1.234
817.679,1.234
817.948,1.237
818.216,1.245
818.485,1.254
818.753,1.291
819.021,1.278
819.290,1.216
819.558,1.203
819.827,1.221
820.095,1.219
820.363,1.218
820.632,1.219
820.900,1.219
821.168,1.221
821.437,1.237
821.705,1.241
821.973,1.237
822.241,1.236
822.509,1.231
822.777,1.228
823.046,1.218
823.314,1.211
823.582,1.216
823.850,1.216
824.118,1.214
824.386,1.223
824.654,1.214
824.922,1.184
825.190,1.187
825.457,1.197
825.725,1.210
825.993,1.208
826.261,1.200
826.529,1.208
826.796,1.229
827.064,1.223
827.332,1.203
827.599,1.213
827.867,1.229
828.134,1.236
828.402,1.216
828.669,1.197
828.937,1.200
829.204,1.210
829.471,1.236
829.739,1.249
830.006,1.236
830.273,1.228
830.540,1.229
830.807,1.208
831.075,1.197
831.342,1.198
831.609,1.206
831.876,1.211
832.142,1.224
832.409,1.232
832.676,1.229
832.943,1.219
833.210,1.216
833.476,1.216
833.743,1.231
834.010,1.237
834.276,1.221
834.543,1.206
834.809,1.198
835.076,1.206
835.342,1.205
835.608,1.198
835.874,1.223
836.141,1.221
836.407,1.214
836.673,1.219
836.939,1.211
837.205,1.213
837.471,1.219
837.737,1.213
838.002,1.208
838.268,1.203
838.534,1.205
838.799,1.223
839.065,1.226
839.330,1.221
839.596,1.223
839.861,1.221
840.127,1.228
840.392,1.224
840.657,1.231
840.922,1.237
841.187,1.250
841.452,1.241
841.717,1.236
841.982,1.241
842.247,1.218
842.511,1.206
842.776,1.221
843.041,1.229
843.305,1.219
843.570,1.208
843.834,1.211
844.098,1.210
844.362,1.205
844.627,1.206
844.891,1.203
845.155,1.213
845.419,1.221
845.682,1.216
845.946,1.223
846.210,1.231
846.474,1.226
846.737,1.223
847.001,1.234
847.264,1.218
847.527,1.193
847.790,1.205
848.054,1.211
848.317,1.200
848.580,1.198
848.843,1.201
849.105,1.214
849.368,1.239
849.631,1.242
849.893,1.237
850.156,1.245
850.418,1.242
850.680,1.221
850.943,1.206
851.205,1.216
851.467,1.221
851.729,1.210
851.991,1.203
852.252,1.210
852.514,1.228
852.776,1.242
853.037,1.245
853.298,1.250
853.560,1.231
853.821,1.218
854.082,1.213
854.343,1.214
854.604,1.228
854.865,1.252
855.126,1.268
855.386,1.258
855.647,1.250
855.907,1.242
856.168,1.226
856.428,1.223
856.688,1.221
856.948,1.210
857.208,1.195
857.468,1.197
857.727,1.210
857.987,1.219
858.247,1.223
858.506,1.228
858.765,1.239
859.024,1.223
859.284,1.203
859.543,1.201
859.801,1.206
860.060,1.205
860.319,1.208
860.577,1.221
860.836,1.228
861.094,1.231
861.352,1.231
861.611,1.218
861.869,1.200
862.127,1.188
862.384,1.200
862.642,1.214
862.900,1.210
863.157,1.237
863.414,1.237
863.672,1.216
863.929,1.201
864.186,1.198
864.443,1.206
864.699,1.213
864.956,1.211
865.212,1.203
865.469,1.200
865.725,1.216
865.981,1.228
866.237,1.224
866.493,1.210
866.749,1.213
867.005,1.210
867.260,1.216
867.516,1.205
867.771,1.198
868.026,1.201
868.282,1.211
868.536,1.224
868.791,1.216
869.046,1.208
869.301,1.200
869.555,1.211
869.809,1.214
870.064,1.228
870.318,1.223
870.572,1.224
870.826,1.226
871.079,1.193
871.333,1.195
871.586,1.200
871.840,1.200
872.093,1.201
872.346,1.211
872.599,1.218
872.852,1.239
873.105,1.245
873.357,1.241
873.610,1.228
873.862,1.221
874.114,1.229
874.366,1.232
874.618,1.228
874.870,1.216
875.121,1.193
875.373,1.201
875.624,1.216
875.876,1.218
876.127,1.213
876.378,1.218
876.629,1.218
876.879,1.213
877.130,1.223
877.381,1.218
877.631,1.203
877.881,1.192
878.131,1.203
878.381,1.228
878.631,1.242
878.881,1.250
879.130,1.236
879.380,1.229
879.629,1.224
879.878,1.213
880.127,1.201
880.376,1.201
880.625,1.216
880.873,1.231
881.122,1.232
881.370,1.234
881.618,1.224
881.866,1.208
882.114,1.201
882.362,1.206
882.610,1.206
882.857,1.216
883.105,1.224
883.352,1.218
883.599,1.201
883.846,1.198
884.093,1.192
884.340,1.197
884.586,1.214
884.833,1.223
885.079,1.221
885.325,1.231
885.571,1.236
885.817,1.231
886.063,1.228
886.309,1.236
886.554,1.232
886.800,1.242
887.045,1.245
887.290,1.232
887.535,1.210
887.780,1.201
888.025,1.216
888.270,1.228
888.514,1.244
888.758,1.239
889.003,1.234
889.247,1.214
889.491,1.201
889.735,1.224
889.978,1.234
890.222,1.234
890.465,1.221
890.709,1.218
890.952,1.211
891.195,1.211
891.438,1.210
891.681,1.205
891.923,1.201
892.166,1.214
892.408,1.221
892.651,1.218
892.893,1.206
893.135,1.193
893.377,1.195
893.619,1.210
893.861,1.218
894.102,1.231
894.344,1.236
894.585,1.252
894.826,1.260
895.067,1.257
895.308,1.226
895.549,1.211
895.790,1.200
896.031,1.193
896.271,1.195
896.512,1.214
896.752,1.229
896.992,1.219
897.232,1.210
897.472,1.214
897.712,1.214
897.952,1.231
898.191,1.242
898.431,1.229
898.670,1.234
898.910,1.244
899.149,1.236
899.388,1.257
899.627,1.262
899.866,1.241
900.105,1.231
900.343,1.221
900.582,1.221
900.820,1.231
901.059,1.232
901.297,1.247
901.535,1.242
901.773,1.208
902.011,1.201
902.249,1.205
902.487,1.198
902.725,1.203
902.963,1.210
903.200,1.206
903.438,1.198
903.675,1.206
903.912,1.214
904.150,1.216
904.387,1.241
904.624,1.229
904.861,1.205
905.098,1.201
905.334,1.201
905.571,1.203
905.808,1.205
906.045,1.218
906.281,1.229
906.518,1.234
906.754,1.232
906.990,1.241
907.227,1.237
907.463,1.219
907.699,1.211
907.935,1.218
908.171,1.232
908.407,1.236
908.643,1.219
908.879,1.219
909.115,1.234
909.350,1.245
909.586,1.237
909.822,1.226
910.057,1.229
910.293,1.247
910.528,1.263
910.764,1.250
910.999,1.236
911.235,1.249
911.470,1.232
911.706,1.236
911.941,1.229
912.176,1.234
912.412,1.229
912.647,1.224
912.882,1.226
913.117,1.228
913.352,1.218
913.588,1.214
913.823,1.221
914.058,1.219
914.293,1.216
914.528,1.219
914.763,1.201
914.999,1.195
915.234,1.195
915.469,1.197
915.704,1.210
915.939,1.213
916.174,1.211
916.409,1.201
916.645,1.214
916.880,1.228
917.115,1.231
917.350,1.224
917.586,1.211
917.821,1.213
918.056,1.226
918.292,1.242
918.527,1.236
918.763,1.228
918.998,1.213
919.234,1.219
919.469,1.241
919.705,1.247
919.940,1.239
920.176,1.232
920.412,1.231
920.648,1.236
920.884,1.228
921.120,1.228
921.356,1.219
921.592,1.221
921.828,1.219
922.065,1.219
922.301,1.214
922.537,1.224
922.774,1.228
923.011,1.221
923.247,1.208
923.484,1.216
923.721,1.237
923.958,1.244
924.195,1.234
924.433,1.228
924.670,1.221
924.908,1.203
925.145,1.192
925.383,1.208
925.621,1.218
925.859,1.229
926.097,1.236
926.335,1.236
926.574,1.214
926.813,1.228
927.051,1.237
927.290,1.229
927.529,1.228
927.769,1.244
928.008,1.252
928.248,1.241
928.487,1.218
928.727,1.221
928.967,1.228
929.208,1.247
929.448,1.241
929.689,1.226
929.930,1.224
930.171,1.214
930.413,1.208
930.654,1.219
930.896,1.211
931.138,1.205
931.380,1.205
931.623,1.208
931.865,1.216
932.108,1.234
932.352,1.229
932.595,1.226
932.839,1.237
933.083,1.231
933.327,1.221
933.571,1.219
933.816,1.211
934.061,1.219
934.307,1.216
934.552,1.210
934.798,1.210
935.045,1.223
935.291,1.216
935.538,1.218
935.785,1.226
936.033,1.228
936.281,1.224
936.529,1.236
936.777,1.236
937.026,1.216
937.275,1.210
937.525,1.206
937.775,1.193
938.025,1.187
938.276,1.193
938.527,1.195
938.778,1.206
939.030,1.208
939.282,1.205
939.535,1.205
939.788,1.205
940.041,1.203
940.295,1.192
940.550,1.187
940.804,1.200
941.059,1.214
941.315,1.211
941.571,1.205
941.828,1.200
942.085,1.206
942.342,1.203
942.600,1.210
942.858,1.210
943.117,1.200
943.377,1.198
943.636,1.200
943.897,1.185
944.158,1.193
944.419,1.208
944.681,1.211
944.944,1.208
945.207,1.213
945.470,1.219
945.734,1.221
945.999,1.224
946.264,1.236
946.530,1.239
946.797,1.236
947.064,1.228
947.331,1.228
947.600,1.223
947.869,1.205
948.138,1.205
948.408,1.210
948.679,1.206
948.950,1.228
949.222,1.231
949.495,1.211
949.768,1.205
950.043,1.208
