Wavelength (nm),Intensity B5.2,,C:/Users/Brend/Desktop/LED Spectras v2/Blinds/-Interference/Spectrometer Data (Newer).sp,,,B5.2,
379.792,1.573,,2018-07-02 14:45:18,,Integration Time,100 ms,
380.000,1.566,,Analyze Light,,Number of Scans to Average,25,
380.209,1.556,,,,Smoothing,0,
380.418,1.572
380.627,1.583
380.837,1.595
381.048,1.592
381.259,1.590
381.471,1.580
381.683,1.583
381.896,1.601
382.110,1.604
382.324,1.607
382.538,1.621
382.753,1.622
382.969,1.625
383.185,1.613
383.402,1.610
383.619,1.621
383.837,1.634
384.055,1.645
384.274,1.661
384.493,1.663
384.712,1.659
384.932,1.665
385.153,1.665
385.374,1.672
385.596,1.681
385.818,1.687
386.040,1.707
386.263,1.713
386.487,1.715
386.710,1.708
386.935,1.705
387.159,1.689
387.385,1.698
387.610,1.696
387.836,1.698
388.063,1.704
388.289,1.722
388.517,1.732
388.744,1.736
388.972,1.729
389.201,1.748
389.430,1.744
389.659,1.748
389.889,1.748
390.119,1.752
390.349,1.750
390.580,1.759
390.811,1.777
391.042,1.776
391.274,1.774
391.507,1.789
391.739,1.797
391.972,1.782
392.205,1.786
392.439,1.798
392.673,1.806
392.907,1.808
393.142,1.819
393.377,1.823
393.612,1.828
393.848,1.837
394.084,1.837
394.320,1.835
394.557,1.838
394.794,1.848
395.031,1.853
395.269,1.861
395.507,1.864
395.745,1.868
395.983,1.869
396.222,1.884
396.461,1.893
396.700,1.907
396.940,1.917
397.180,1.906
397.420,1.905
397.660,1.899
397.901,1.898
398.142,1.908
398.383,1.925
398.625,1.924
398.866,1.923
399.108,1.947
399.351,1.959
399.593,1.976
399.836,1.965
400.079,1.952
400.322,1.940
400.566,1.941
400.809,1.949
401.053,1.956
401.298,1.960
401.542,1.964
401.787,1.979
402.031,1.990
402.277,1.990
402.522,1.996
402.767,1.991
403.013,1.986
403.259,1.982
403.505,1.989
403.752,1.987
403.998,1.992
404.245,2.002
404.492,2.031
404.739,2.042
404.986,2.047
405.234,2.052
405.482,2.048
405.730,2.040
405.978,2.046
406.226,2.055
406.475,2.046
406.723,2.031
406.972,2.046
407.221,2.063
407.470,2.075
407.720,2.073
407.969,2.082
408.219,2.070
408.469,2.090
408.719,2.101
408.969,2.101
409.219,2.108
409.470,2.125
409.720,2.119
409.971,2.131
410.222,2.130
410.473,2.142
410.724,2.142
410.976,2.135
411.227,2.140
411.479,2.155
411.731,2.148
411.983,2.158
412.235,2.153
412.487,2.162
412.740,2.157
412.992,2.163
413.245,2.165
413.497,2.172
413.750,2.171
414.003,2.180
414.257,2.176
414.510,2.180
414.763,2.187
415.017,2.198
415.270,2.188
415.524,2.191
415.778,2.187
416.032,2.190
416.286,2.198
416.540,2.207
416.794,2.202
417.049,2.218
417.303,2.212
417.558,2.206
417.812,2.209
418.067,2.204
418.322,2.210
418.577,2.217
418.832,2.213
419.088,2.208
419.343,2.200
419.598,2.206
419.854,2.198
420.109,2.204
420.365,2.208
420.621,2.227
420.876,2.226
421.132,2.227
421.388,2.224
421.645,2.226
421.901,2.221
422.157,2.231
422.413,2.227
422.670,2.231
422.926,2.234
423.183,2.253
423.439,2.256
423.696,2.270
423.953,2.277
424.210,2.310
424.467,2.323
424.724,2.313
424.981,2.313
425.238,2.314
425.495,2.323
425.753,2.353
426.010,2.358
426.267,2.368
426.525,2.384
426.782,2.415
427.040,2.439
427.298,2.475
427.555,2.501
427.813,2.526
428.071,2.551
428.329,2.583
428.587,2.599
428.845,2.638
429.103,2.677
429.361,2.728
429.619,2.772
429.878,2.832
430.136,2.875
430.394,2.930
430.653,2.973
430.911,3.057
431.170,3.154
431.428,3.227
431.687,3.288
431.946,3.359
432.204,3.440
432.463,3.538
432.722,3.645
432.981,3.756
433.240,3.864
433.499,4.003
433.758,4.117
434.017,4.257
434.276,4.377
434.535,4.521
434.794,4.665
435.053,4.841
435.312,4.994
435.572,5.168
435.831,5.346
436.090,5.549
436.350,5.756
436.609,5.968
436.869,6.174
437.128,6.416
437.388,6.640
437.647,6.888
437.907,7.133
438.166,7.416
438.426,7.657
438.686,7.942
438.946,8.226
439.205,8.541
439.465,8.853
439.725,9.193
439.985,9.544
440.245,9.879
440.505,10.218
440.765,10.606
441.025,11.003
441.285,11.397
441.545,11.799
441.805,12.211
442.065,12.673
442.325,13.139
442.585,13.594
442.846,14.131
443.106,14.672
443.366,15.257
443.626,15.837
443.887,16.419
444.147,17.030
444.407,17.717
444.668,18.364
444.928,19.093
445.189,19.828
445.449,20.626
445.710,21.436
445.970,22.301
446.231,23.161
446.491,24.131
446.752,25.138
447.012,26.135
447.273,27.203
447.534,28.354
447.794,29.492
448.055,30.700
448.316,31.959
448.577,33.302
448.837,34.690
449.098,36.085
449.359,37.528
449.620,38.998
449.881,40.475
450.142,41.996
450.403,43.568
450.664,45.199
450.924,46.890
451.185,48.601
451.446,50.303
451.707,52.000
451.969,53.710
452.230,55.447
452.491,57.162
452.752,58.799
453.013,60.390
453.274,61.978
453.535,63.457
453.796,64.900
454.058,66.252
454.319,67.511
454.580,68.671
454.841,69.689
455.103,70.552
455.364,71.323
455.625,72.005
455.887,72.577
456.148,72.943
456.409,73.181
456.671,73.323
456.932,73.297
457.194,73.104
457.455,72.829
457.716,72.430
457.978,71.822
458.239,71.139
458.501,70.384
458.763,69.493
459.024,68.507
459.286,67.458
459.547,66.285
459.809,64.989
460.071,63.564
460.332,62.120
460.594,60.673
460.856,59.163
461.117,57.653
461.379,56.139
461.641,54.641
461.903,53.118
462.164,51.639
462.426,50.188
462.688,48.758
462.950,47.369
463.212,46.014
463.474,44.703
463.736,43.430
463.998,42.219
464.260,41.122
464.522,40.075
464.784,39.065
465.046,38.123
465.308,37.244
465.570,36.461
465.832,35.672
466.094,34.952
466.356,34.249
466.618,33.616
466.880,33.000
467.142,32.379
467.405,31.836
467.667,31.296
467.929,30.808
468.191,30.331
468.454,29.840
468.716,29.331
468.978,28.849
469.241,28.367
469.503,27.863
469.765,27.413
470.028,26.977
470.290,26.506
470.552,26.051
470.815,25.608
471.077,25.150
471.340,24.671
471.602,24.214
471.865,23.753
472.128,23.282
472.390,22.783
472.653,22.310
472.915,21.833
473.178,21.332
473.441,20.840
473.703,20.323
473.966,19.797
474.229,19.305
474.492,18.788
474.755,18.275
475.017,17.780
475.280,17.304
475.543,16.805
475.806,16.345
476.069,15.852
476.332,15.351
476.595,14.910
476.858,14.499
477.121,14.035
477.384,13.601
477.647,13.210
477.910,12.842
478.173,12.461
478.436,12.097
478.699,11.743
478.962,11.429
479.226,11.111
479.489,10.796
479.752,10.477
480.015,10.189
480.279,9.895
480.542,9.640
480.805,9.372
481.069,9.102
481.332,8.848
481.595,8.631
481.859,8.424
482.122,8.266
482.386,8.053
482.649,7.869
482.913,7.653
483.177,7.468
483.440,7.283
483.704,7.117
483.967,6.956
484.231,6.834
484.495,6.673
484.759,6.517
485.022,6.356
485.286,6.205
485.550,6.045
485.814,5.900
486.078,5.730
486.342,5.607
486.606,5.470
486.869,5.369
487.133,5.245
487.397,5.146
487.662,5.018
487.926,4.901
488.190,4.759
488.454,4.630
488.718,4.476
488.982,4.362
489.246,4.238
489.511,4.143
489.775,4.019
490.039,3.918
490.304,3.821
490.568,3.715
490.832,3.605
491.097,3.525
491.361,3.430
491.626,3.350
491.890,3.263
492.155,3.177
492.419,3.074
492.684,3.008
492.949,2.902
493.213,2.826
493.478,2.778
493.743,2.733
494.008,2.651
494.272,2.581
494.537,2.521
494.802,2.473
495.067,2.425
495.332,2.395
495.597,2.352
495.862,2.313
496.127,2.258
496.392,2.223
496.657,2.184
496.922,2.127
497.187,2.093
497.452,2.077
497.718,2.051
497.983,2.045
498.248,2.008
498.513,1.966
498.779,1.944
499.044,1.943
499.310,1.918
499.575,1.881
499.841,1.859
500.106,1.840
500.372,1.823
500.637,1.802
500.903,1.796
501.168,1.803
501.434,1.777
501.700,1.744
501.966,1.719
502.231,1.712
502.497,1.695
502.763,1.686
503.029,1.665
503.295,1.655
503.561,1.656
503.827,1.644
504.093,1.638
504.359,1.628
504.625,1.613
504.891,1.602
505.157,1.594
505.423,1.588
505.690,1.561
505.956,1.543
506.222,1.536
506.489,1.544
506.755,1.567
507.021,1.561
507.288,1.554
507.554,1.534
507.821,1.522
508.087,1.508
508.354,1.502
508.621,1.508
508.887,1.489
509.154,1.475
509.421,1.472
509.687,1.462
509.954,1.441
510.221,1.434
510.488,1.426
510.755,1.437
511.022,1.444
511.289,1.442
511.556,1.421
511.823,1.417
512.090,1.415
512.357,1.423
512.624,1.414
512.891,1.410
513.159,1.403
513.426,1.396
513.693,1.391
513.960,1.389
514.228,1.382
514.495,1.384
514.763,1.378
515.030,1.371
515.298,1.362
515.565,1.361
515.833,1.376
516.100,1.362
516.368,1.354
516.636,1.360
516.904,1.353
517.171,1.358
517.439,1.352
517.707,1.339
517.975,1.326
518.243,1.330
518.511,1.339
518.779,1.323
519.047,1.312
519.315,1.334
519.583,1.334
519.851,1.323
520.119,1.315
520.387,1.319
520.656,1.318
520.924,1.314
521.192,1.315
521.461,1.320
521.729,1.331
521.997,1.333
522.266,1.326
522.534,1.316
522.803,1.308
523.071,1.302
523.340,1.294
523.609,1.283
523.877,1.273
524.146,1.282
524.415,1.286
524.684,1.295
524.952,1.296
525.221,1.290
525.490,1.293
525.759,1.309
526.028,1.299
526.297,1.286
526.566,1.271
526.835,1.281
527.104,1.278
527.373,1.289
527.642,1.290
527.912,1.277
528.181,1.263
528.450,1.270
528.719,1.277
528.989,1.288
529.258,1.290
529.528,1.289
529.797,1.275
530.067,1.278
530.336,1.285
530.606,1.270
530.875,1.267
531.145,1.257
531.414,1.252
531.684,1.259
531.954,1.271
532.224,1.269
532.493,1.262
532.763,1.257
533.033,1.254
533.303,1.259
533.573,1.263
533.843,1.260
534.113,1.249
534.383,1.257
534.653,1.247
534.923,1.254
535.193,1.261
535.463,1.249
535.733,1.263
536.004,1.268
536.274,1.268
536.544,1.264
536.814,1.260
537.085,1.258
537.355,1.252
537.626,1.255
537.896,1.257
538.166,1.253
538.437,1.247
538.707,1.241
538.978,1.240
539.249,1.247
539.519,1.249
539.790,1.241
540.061,1.240
540.331,1.250
540.602,1.259
540.873,1.260
541.144,1.251
541.414,1.254
541.685,1.254
541.956,1.261
542.227,1.253
542.498,1.239
542.769,1.230
543.040,1.235
543.311,1.252
543.582,1.260
543.853,1.259
544.124,1.251
544.396,1.250
544.667,1.260
544.938,1.263
545.209,1.251
545.480,1.229
545.752,1.235
546.023,1.244
546.294,1.248
546.566,1.243
546.837,1.241
547.109,1.238
547.380,1.245
547.652,1.248
547.923,1.241
548.195,1.240
548.466,1.249
548.738,1.258
549.009,1.264
549.281,1.258
549.553,1.251
549.824,1.241
550.096,1.232
550.368,1.235
550.640,1.243
550.911,1.245
551.183,1.255
551.455,1.271
551.727,1.279
551.999,1.263
552.271,1.247
552.543,1.240
552.815,1.251
553.087,1.254
553.359,1.263
553.631,1.258
553.903,1.248
554.175,1.253
554.447,1.262
554.719,1.252
554.991,1.253
555.263,1.244
555.535,1.237
555.808,1.223
556.080,1.228
556.352,1.232
556.624,1.242
556.897,1.243
557.169,1.234
557.441,1.232
557.714,1.239
557.986,1.234
558.258,1.234
558.531,1.233
558.803,1.241
559.076,1.250
559.348,1.243
559.621,1.233
559.893,1.237
560.166,1.243
560.438,1.235
560.711,1.228
560.983,1.229
561.256,1.225
561.528,1.240
561.801,1.247
562.074,1.242
562.346,1.240
562.619,1.254
562.892,1.258
563.164,1.251
563.437,1.251
563.710,1.259
563.983,1.250
564.255,1.233
564.528,1.227
564.801,1.239
565.074,1.247
565.346,1.235
565.619,1.230
565.892,1.241
566.165,1.247
566.438,1.239
566.711,1.227
566.984,1.229
567.257,1.224
567.529,1.225
567.802,1.235
568.075,1.252
568.348,1.242
568.621,1.232
568.894,1.240
569.167,1.234
569.440,1.233
569.713,1.227
569.986,1.217
570.259,1.220
570.532,1.219
570.805,1.224
571.078,1.235
571.351,1.229
571.625,1.233
571.898,1.237
572.171,1.227
572.444,1.215
572.717,1.217
572.990,1.229
573.263,1.228
573.536,1.219
573.809,1.213
574.083,1.207
574.356,1.207
574.629,1.221
574.902,1.230
575.175,1.223
575.448,1.208
575.721,1.201
575.995,1.210
576.268,1.218
576.541,1.212
576.814,1.222
577.087,1.229
577.361,1.232
577.634,1.232
577.907,1.228
578.180,1.201
578.453,1.194
578.727,1.205
579.000,1.203
579.273,1.207
579.546,1.221
579.820,1.234
580.093,1.230
580.366,1.227
580.639,1.218
580.913,1.215
581.186,1.217
581.459,1.218
581.732,1.218
582.005,1.210
582.279,1.208
582.552,1.204
582.825,1.208
583.098,1.208
583.372,1.212
583.645,1.215
583.918,1.214
584.191,1.207
584.464,1.203
584.738,1.205
585.011,1.210
585.284,1.208
585.557,1.210
585.831,1.209
586.104,1.220
586.377,1.232
586.650,1.245
586.923,1.235
587.196,1.233
587.470,1.230
587.743,1.217
588.016,1.218
588.289,1.220
588.562,1.228
588.835,1.228
589.109,1.211
589.382,1.205
589.655,1.203
589.928,1.201
590.201,1.208
590.474,1.213
590.747,1.224
591.020,1.231
591.293,1.228
591.567,1.227
591.840,1.211
592.113,1.208
592.386,1.208
592.659,1.194
592.932,1.191
593.205,1.207
593.478,1.223
593.751,1.220
594.024,1.213
594.297,1.214
594.570,1.209
594.843,1.218
595.116,1.224
595.389,1.222
595.662,1.221
595.934,1.221
596.207,1.221
596.480,1.223
596.753,1.225
597.026,1.231
597.299,1.223
597.572,1.228
597.844,1.225
598.117,1.217
598.390,1.215
598.663,1.214
598.936,1.207
599.208,1.213
599.481,1.219
599.754,1.220
600.026,1.213
600.299,1.195
600.572,1.189
600.844,1.197
601.117,1.190
601.390,1.181
601.662,1.188
601.935,1.193
602.207,1.198
602.480,1.209
602.752,1.208
603.025,1.191
603.297,1.187
603.570,1.200
603.842,1.207
604.115,1.214
604.387,1.208
604.660,1.210
604.932,1.202
605.204,1.204
605.477,1.208
605.749,1.217
606.021,1.223
606.294,1.224
606.566,1.220
606.838,1.210
607.110,1.212
607.383,1.209
607.655,1.203
607.927,1.208
608.199,1.210
608.471,1.211
608.743,1.207
609.015,1.201
609.287,1.197
609.559,1.199
609.831,1.199
610.103,1.203
610.375,1.203
610.647,1.194
610.919,1.187
611.191,1.200
611.463,1.210
611.735,1.215
612.007,1.213
612.278,1.207
612.550,1.202
612.822,1.207
613.094,1.212
613.365,1.214
613.637,1.213
613.909,1.215
614.180,1.221
614.452,1.223
614.723,1.220
614.995,1.211
615.266,1.203
615.538,1.210
615.809,1.221
616.081,1.214
616.352,1.205
616.623,1.215
616.895,1.215
617.166,1.202
617.437,1.191
617.709,1.191
617.980,1.193
618.251,1.201
618.522,1.201
618.793,1.207
619.065,1.229
619.336,1.231
619.607,1.207
619.878,1.208
620.149,1.221
620.420,1.220
620.691,1.211
620.962,1.214
621.232,1.221
621.503,1.229
621.774,1.217
622.045,1.212
622.316,1.217
622.586,1.230
622.857,1.238
623.128,1.245
623.398,1.232
623.669,1.224
623.940,1.215
624.210,1.201
624.481,1.202
624.751,1.210
625.021,1.200
625.292,1.203
625.562,1.209
625.833,1.208
626.103,1.200
626.373,1.199
626.643,1.195
626.914,1.203
627.184,1.209
627.454,1.208
627.724,1.203
627.994,1.200
628.264,1.202
628.534,1.197
628.804,1.189
629.074,1.193
629.344,1.201
629.614,1.202
629.884,1.201
630.154,1.187
630.424,1.187
630.693,1.182
630.963,1.177
631.233,1.172
631.502,1.169
631.772,1.189
632.041,1.205
632.311,1.201
632.581,1.192
632.850,1.199
633.119,1.202
633.389,1.197
633.658,1.189
633.928,1.188
634.197,1.188
634.466,1.193
634.735,1.202
635.004,1.203
635.274,1.191
635.543,1.198
635.812,1.199
636.081,1.198
636.350,1.203
636.619,1.210
636.888,1.212
637.157,1.208
637.426,1.208
637.694,1.205
637.963,1.197
638.232,1.198
638.501,1.197
638.769,1.189
639.038,1.195
639.307,1.205
639.575,1.215
639.844,1.213
640.112,1.200
640.381,1.190
640.649,1.184
640.917,1.190
641.186,1.192
641.454,1.200
641.722,1.205
641.991,1.199
642.259,1.191
642.527,1.175
642.795,1.182
643.063,1.175
643.331,1.171
643.599,1.180
643.867,1.185
644.135,1.192
644.403,1.193
644.671,1.192
644.939,1.188
645.206,1.200
645.474,1.208
645.742,1.203
646.009,1.190
646.277,1.185
646.545,1.191
646.812,1.202
647.080,1.210
647.347,1.209
647.615,1.207
647.882,1.204
648.149,1.191
648.417,1.188
648.684,1.192
648.951,1.204
649.219,1.213
649.486,1.210
649.753,1.200
650.020,1.195
650.287,1.190
650.554,1.184
650.821,1.195
651.088,1.190
651.355,1.191
651.622,1.202
651.889,1.199
652.155,1.199
652.422,1.201
652.689,1.200
652.956,1.210
653.222,1.205
653.489,1.214
653.755,1.224
654.022,1.208
654.288,1.184
654.555,1.180
654.821,1.188
655.088,1.194
655.354,1.205
655.620,1.209
655.887,1.213
656.153,1.210
656.419,1.209
656.685,1.199
656.951,1.199
657.217,1.201
657.483,1.193
657.749,1.189
658.015,1.194
658.281,1.200
658.547,1.203
658.813,1.187
659.079,1.183
659.345,1.181
659.610,1.178
659.876,1.191
660.142,1.200
660.407,1.201
660.673,1.209
660.939,1.210
661.204,1.201
661.470,1.191
661.735,1.189
662.000,1.195
662.266,1.200
662.531,1.191
662.796,1.188
663.062,1.190
663.327,1.179
663.592,1.178
663.857,1.187
664.122,1.189
664.388,1.185
664.653,1.189
664.918,1.197
665.183,1.203
665.448,1.197
665.712,1.204
665.977,1.213
666.242,1.213
666.507,1.203
666.772,1.181
667.037,1.183
667.301,1.184
667.566,1.184
667.831,1.189
668.095,1.191
668.360,1.189
668.624,1.193
668.889,1.187
669.153,1.189
669.418,1.183
669.682,1.194
669.946,1.201
670.211,1.199
670.475,1.201
670.739,1.212
671.004,1.217
671.268,1.225
671.532,1.252
671.796,1.250
672.060,1.205
672.324,1.207
672.588,1.204
672.852,1.210
673.116,1.231
673.380,1.281
673.644,1.267
673.908,1.205
674.172,1.198
674.436,1.203
674.700,1.200
674.963,1.195
675.227,1.203
675.491,1.207
675.754,1.189
676.018,1.182
676.282,1.187
676.545,1.189
676.809,1.183
677.072,1.182
677.336,1.180
677.599,1.181
677.863,1.190
678.126,1.189
678.389,1.193
678.653,1.210
678.916,1.202
679.179,1.188
679.442,1.183
679.706,1.191
679.969,1.191
680.232,1.191
680.495,1.194
680.758,1.204
681.021,1.198
681.284,1.187
681.547,1.175
681.810,1.184
682.073,1.204
682.336,1.218
682.599,1.204
682.862,1.192
683.125,1.190
683.388,1.199
683.651,1.207
683.913,1.204
684.176,1.193
684.439,1.180
684.702,1.172
684.964,1.164
685.227,1.169
685.490,1.183
685.752,1.201
686.015,1.205
686.277,1.195
686.540,1.195
686.802,1.184
687.065,1.183
687.327,1.190
687.590,1.189
687.852,1.180
688.115,1.164
688.377,1.160
688.639,1.172
688.902,1.174
689.164,1.179
689.426,1.187
689.689,1.190
689.951,1.189
690.213,1.180
690.475,1.183
690.737,1.183
691.000,1.181
691.262,1.185
691.524,1.189
691.786,1.192
692.048,1.203
692.310,1.204
692.572,1.190
692.834,1.173
693.096,1.172
693.358,1.188
693.620,1.199
693.882,1.210
694.144,1.209
694.406,1.200
694.668,1.191
694.930,1.187
695.192,1.177
695.453,1.183
695.715,1.194
695.977,1.191
696.239,1.178
696.501,1.166
696.762,1.184
697.024,1.201
697.286,1.190
697.548,1.183
697.809,1.187
698.071,1.185
698.333,1.179
698.594,1.184
698.856,1.189
699.118,1.195
699.379,1.189
699.641,1.183
699.902,1.185
700.164,1.179
700.426,1.182
700.687,1.181
700.949,1.184
701.210,1.190
701.472,1.191
701.733,1.179
701.995,1.177
702.256,1.181
702.518,1.179
702.779,1.171
703.041,1.172
703.302,1.190
703.563,1.190
703.825,1.175
704.086,1.180
704.348,1.181
704.609,1.171
704.871,1.182
705.132,1.193
705.393,1.188
705.655,1.175
705.916,1.181
706.177,1.182
706.439,1.179
706.700,1.181
706.961,1.174
707.223,1.180
707.484,1.175
707.745,1.152
708.007,1.152
708.268,1.148
708.529,1.133
708.790,1.126
709.052,1.117
709.313,1.116
709.574,1.122
709.835,1.123
710.097,1.120
710.358,1.103
710.619,1.094
710.881,1.091
711.142,1.097
711.403,1.087
711.664,1.083
711.926,1.091
712.187,1.086
712.448,1.096
712.709,1.104
712.970,1.104
713.232,1.111
713.493,1.108
713.754,1.108
714.015,1.113
714.277,1.122
714.538,1.127
714.799,1.136
715.060,1.141
715.322,1.130
715.583,1.126
715.844,1.126
716.105,1.111
716.367,1.104
716.628,1.104
716.889,1.110
717.150,1.111
717.411,1.108
717.673,1.103
717.934,1.109
718.195,1.118
718.457,1.116
718.718,1.101
718.979,1.096
719.240,1.100
719.502,1.103
719.763,1.113
720.024,1.118
720.286,1.121
720.547,1.123
720.808,1.114
721.069,1.108
721.331,1.101
721.592,1.112
721.853,1.120
722.115,1.123
722.376,1.123
722.638,1.128
722.899,1.117
723.160,1.117
723.422,1.113
723.683,1.098
723.944,1.100
724.206,1.107
724.467,1.103
724.729,1.108
724.990,1.112
725.252,1.121
725.513,1.123
725.775,1.109
726.036,1.102
726.298,1.101
726.559,1.102
726.821,1.106
727.082,1.106
727.344,1.107
727.605,1.100
727.867,1.097
728.128,1.097
728.390,1.108
728.652,1.103
728.913,1.111
729.175,1.122
729.436,1.120
729.698,1.131
729.960,1.137
730.221,1.119
730.483,1.104
730.745,1.097
731.007,1.100
731.268,1.103
731.530,1.100
731.792,1.094
732.054,1.092
732.315,1.106
732.577,1.108
732.839,1.109
733.101,1.103
733.363,1.097
733.625,1.089
733.887,1.092
734.149,1.101
734.411,1.097
734.673,1.104
734.935,1.113
735.197,1.108
735.459,1.103
735.721,1.111
735.983,1.108
736.245,1.098
736.507,1.096
736.769,1.107
737.031,1.112
737.293,1.111
737.555,1.100
737.818,1.096
738.080,1.089
738.342,1.089
738.604,1.089
738.867,1.089
739.129,1.090
739.391,1.086
739.654,1.086
739.916,1.089
740.178,1.091
740.441,1.098
740.703,1.107
740.966,1.106
741.228,1.103
741.491,1.103
741.753,1.098
742.016,1.106
742.278,1.104
742.541,1.101
742.804,1.108
743.066,1.108
743.329,1.108
743.592,1.109
743.854,1.103
744.117,1.106
744.380,1.108
744.643,1.107
744.905,1.103
745.168,1.104
745.431,1.098
745.694,1.091
745.957,1.087
746.220,1.086
746.483,1.083
746.746,1.092
747.009,1.098
747.272,1.111
747.535,1.124
747.798,1.116
748.061,1.109
748.324,1.106
748.588,1.102
748.851,1.099
749.114,1.100
749.377,1.097
749.641,1.102
749.904,1.109
750.167,1.118
750.431,1.126
750.694,1.127
750.958,1.130
751.221,1.127
751.485,1.107
751.748,1.098
752.012,1.102
752.275,1.110
752.539,1.121
752.803,1.117
753.066,1.106
753.330,1.098
753.594,1.101
753.857,1.102
754.121,1.094
754.385,1.102
754.649,1.106
754.913,1.102
755.177,1.110
755.441,1.112
755.705,1.107
755.969,1.098
756.233,1.100
756.497,1.111
756.761,1.109
757.025,1.102
757.289,1.099
757.553,1.098
757.818,1.098
758.082,1.101
758.346,1.109
758.610,1.111
758.875,1.110
759.139,1.111
759.404,1.108
759.668,1.100
759.932,1.100
760.197,1.108
760.462,1.116
760.726,1.108
760.991,1.103
761.255,1.107
761.520,1.111
761.785,1.106
762.049,1.098
762.314,1.088
762.579,1.091
762.844,1.094
763.109,1.101
763.374,1.101
763.639,1.099
763.903,1.099
764.168,1.097
764.433,1.090
764.699,1.103
764.964,1.107
765.229,1.102
765.494,1.097
765.759,1.092
766.024,1.094
766.290,1.101
766.555,1.108
766.820,1.113
767.086,1.116
767.351,1.113
767.616,1.112
767.882,1.108
768.147,1.103
768.413,1.108
768.678,1.100
768.944,1.106
769.209,1.117
769.475,1.114
769.741,1.118
770.006,1.126
770.272,1.123
770.538,1.124
770.804,1.112
771.070,1.108
771.335,1.118
771.601,1.127
771.867,1.129
772.133,1.124
772.399,1.119
772.665,1.112
772.931,1.101
773.197,1.111
773.464,1.113
773.730,1.113
773.996,1.124
774.262,1.127
774.528,1.121
774.795,1.112
775.061,1.112
775.327,1.119
775.594,1.114
775.860,1.109
776.126,1.099
776.393,1.091
776.659,1.096
776.926,1.109
777.193,1.107
777.459,1.104
777.726,1.102
777.992,1.102
778.259,1.100
778.526,1.100
778.793,1.106
779.059,1.101
779.326,1.109
779.593,1.108
779.860,1.109
780.127,1.116
780.394,1.108
780.661,1.102
780.928,1.098
781.195,1.091
781.462,1.088
781.729,1.103
781.996,1.104
782.263,1.100
782.530,1.104
782.797,1.114
783.064,1.108
783.332,1.103
783.599,1.093
783.866,1.083
784.134,1.088
784.401,1.089
784.668,1.089
784.936,1.103
785.203,1.108
785.470,1.101
785.738,1.100
786.005,1.099
786.273,1.093
786.541,1.092
786.808,1.097
787.076,1.090
787.343,1.090
787.611,1.090
787.879,1.104
788.146,1.114
788.414,1.111
788.682,1.116
788.950,1.107
789.217,1.109
789.485,1.114
789.753,1.128
790.021,1.120
790.289,1.102
790.557,1.090
790.825,1.089
791.093,1.094
791.361,1.110
791.629,1.122
791.897,1.131
792.165,1.123
792.433,1.106
792.701,1.099
792.969,1.087
793.237,1.081
793.505,1.092
793.773,1.104
794.042,1.101
794.310,1.091
794.578,1.092
794.846,1.096
795.115,1.096
795.383,1.098
795.651,1.100
795.920,1.109
796.188,1.111
796.456,1.114
796.725,1.117
796.993,1.119
797.261,1.124
797.530,1.122
797.798,1.111
798.067,1.111
798.335,1.123
798.604,1.116
798.872,1.100
799.141,1.096
799.409,1.099
799.678,1.101
799.946,1.101
800.215,1.110
800.483,1.106
800.752,1.104
801.020,1.106
801.289,1.093
801.558,1.088
801.826,1.093
802.095,1.104
802.363,1.108
802.632,1.112
802.901,1.112
803.169,1.116
803.438,1.106
803.707,1.092
803.976,1.088
804.244,1.083
804.513,1.090
804.782,1.089
805.050,1.084
805.319,1.092
805.588,1.098
805.857,1.108
806.125,1.114
806.394,1.117
806.663,1.108
806.931,1.100
807.200,1.091
807.469,1.087
807.738,1.092
808.006,1.084
808.275,1.084
808.544,1.098
808.813,1.110
809.082,1.120
809.350,1.107
809.619,1.102
809.888,1.101
810.157,1.093
810.425,1.086
810.694,1.096
810.963,1.096
811.232,1.096
811.500,1.092
811.769,1.083
812.038,1.082
812.306,1.089
812.575,1.096
812.844,1.104
813.113,1.109
813.381,1.102
813.650,1.094
813.919,1.104
814.187,1.109
814.456,1.107
814.725,1.106
814.993,1.106
815.262,1.098
815.531,1.106
815.799,1.108
816.068,1.094
816.336,1.082
816.605,1.082
816.873,1.090
817.142,1.100
817.411,1.110
817.679,1.109
817.948,1.109
818.216,1.122
818.485,1.143
818.753,1.169
819.021,1.156
819.290,1.103
819.558,1.091
819.827,1.112
820.095,1.113
820.363,1.114
820.632,1.112
820.900,1.101
821.168,1.097
821.437,1.110
821.705,1.106
821.973,1.104
822.241,1.114
822.509,1.118
822.777,1.112
823.046,1.107
823.314,1.102
823.582,1.107
823.850,1.110
824.118,1.109
824.386,1.122
824.654,1.114
824.922,1.092
825.190,1.087
825.457,1.081
825.725,1.092
825.993,1.098
826.261,1.096
826.529,1.097
826.796,1.100
827.064,1.107
827.332,1.107
827.599,1.109
827.867,1.116
828.134,1.119
828.402,1.103
828.669,1.087
828.937,1.088
829.204,1.097
829.471,1.121
829.739,1.133
830.006,1.123
830.273,1.110
830.540,1.104
830.807,1.100
831.075,1.091
831.342,1.098
831.609,1.110
831.876,1.110
832.142,1.120
832.409,1.124
832.676,1.117
832.943,1.100
833.210,1.090
833.476,1.088
833.743,1.096
834.010,1.104
834.276,1.101
834.543,1.088
834.809,1.092
835.076,1.097
835.342,1.097
835.608,1.098
835.874,1.113
836.141,1.110
836.407,1.094
836.673,1.102
836.939,1.103
837.205,1.103
837.471,1.110
837.737,1.104
838.002,1.107
838.268,1.101
838.534,1.101
838.799,1.096
839.065,1.094
839.330,1.107
839.596,1.110
839.861,1.109
840.127,1.116
840.392,1.122
840.657,1.128
840.922,1.124
841.187,1.129
841.452,1.124
841.717,1.114
841.982,1.117
842.247,1.106
842.511,1.090
842.776,1.098
843.041,1.106
843.305,1.098
843.570,1.092
843.834,1.096
844.098,1.093
844.362,1.094
844.627,1.094
844.891,1.092
845.155,1.099
845.419,1.108
845.682,1.111
845.946,1.113
846.210,1.118
846.474,1.112
846.737,1.099
847.001,1.112
847.264,1.107
847.527,1.097
847.790,1.111
848.054,1.106
848.317,1.100
848.580,1.092
848.843,1.089
849.105,1.096
849.368,1.113
849.631,1.118
849.893,1.117
850.156,1.134
850.418,1.127
850.680,1.112
850.943,1.094
851.205,1.100
851.467,1.103
851.729,1.096
851.991,1.098
852.252,1.103
852.514,1.104
852.776,1.107
853.037,1.107
853.298,1.107
853.560,1.093
853.821,1.082
854.082,1.086
854.343,1.083
854.604,1.097
854.865,1.123
855.126,1.130
855.386,1.131
855.647,1.137
855.907,1.127
856.168,1.113
856.428,1.108
856.688,1.104
856.948,1.100
857.208,1.082
857.468,1.084
857.727,1.100
857.987,1.102
858.247,1.101
858.506,1.112
858.765,1.117
859.024,1.100
859.284,1.088
859.543,1.092
859.801,1.088
860.060,1.088
860.319,1.099
860.577,1.107
860.836,1.113
861.094,1.118
861.352,1.117
861.611,1.112
861.869,1.104
862.127,1.098
862.384,1.116
862.642,1.127
862.900,1.120
863.157,1.132
863.414,1.127
863.672,1.102
863.929,1.093
864.186,1.098
864.443,1.104
864.699,1.110
864.956,1.106
865.212,1.101
865.469,1.094
865.725,1.104
865.981,1.118
866.237,1.116
866.493,1.103
866.749,1.094
867.005,1.088
867.260,1.088
867.516,1.082
867.771,1.078
868.026,1.077
868.282,1.082
868.536,1.099
868.791,1.099
869.046,1.089
869.301,1.084
869.555,1.082
869.809,1.096
870.064,1.111
870.318,1.107
870.572,1.108
870.826,1.108
871.079,1.090
871.333,1.096
871.586,1.102
871.840,1.098
872.093,1.103
872.346,1.111
872.599,1.111
872.852,1.121
873.105,1.130
873.357,1.123
873.610,1.111
873.862,1.109
874.114,1.114
874.366,1.112
874.618,1.109
874.870,1.101
875.121,1.086
875.373,1.090
875.624,1.096
875.876,1.101
876.127,1.103
876.378,1.103
876.629,1.096
876.879,1.101
877.130,1.110
877.381,1.096
877.631,1.080
877.881,1.084
878.131,1.094
878.381,1.102
878.631,1.122
878.881,1.133
879.130,1.122
879.380,1.112
879.629,1.104
879.878,1.097
880.127,1.092
880.376,1.099
880.625,1.104
880.873,1.116
881.122,1.119
881.370,1.120
881.618,1.118
881.866,1.110
882.114,1.103
882.362,1.102
882.610,1.104
882.857,1.108
883.105,1.109
883.352,1.109
883.599,1.096
883.846,1.100
884.093,1.098
884.340,1.093
884.586,1.107
884.833,1.116
885.079,1.113
885.325,1.121
885.571,1.112
885.817,1.096
886.063,1.101
886.309,1.110
886.554,1.120
886.800,1.130
887.045,1.131
887.290,1.122
887.535,1.109
887.780,1.104
888.025,1.107
888.270,1.130
888.514,1.137
888.758,1.137
889.003,1.127
889.247,1.111
889.491,1.094
889.735,1.110
889.978,1.122
890.222,1.124
890.465,1.122
890.709,1.111
890.952,1.103
891.195,1.096
891.438,1.083
891.681,1.082
891.923,1.086
892.166,1.103
892.408,1.103
892.651,1.094
892.893,1.097
893.135,1.098
893.377,1.101
893.619,1.102
893.861,1.107
894.102,1.108
894.344,1.112
894.585,1.127
894.826,1.133
895.067,1.132
895.308,1.116
895.549,1.110
895.790,1.093
896.031,1.086
896.271,1.094
896.512,1.107
896.752,1.106
896.992,1.104
897.232,1.101
897.472,1.094
897.712,1.101
897.952,1.128
898.191,1.137
898.431,1.118
898.670,1.119
898.910,1.124
899.149,1.121
899.388,1.128
899.627,1.127
899.866,1.114
900.105,1.108
900.343,1.104
900.582,1.102
900.820,1.108
901.059,1.116
901.297,1.134
901.535,1.132
901.773,1.103
902.011,1.093
902.249,1.089
902.487,1.079
902.725,1.090
902.963,1.112
903.200,1.118
903.438,1.110
903.675,1.109
903.912,1.104
904.150,1.111
904.387,1.130
904.624,1.107
904.861,1.086
905.098,1.090
905.334,1.093
905.571,1.092
905.808,1.089
906.045,1.099
906.281,1.113
906.518,1.110
906.754,1.103
906.990,1.113
907.227,1.107
907.463,1.101
907.699,1.098
907.935,1.092
908.171,1.107
908.407,1.113
908.643,1.106
908.879,1.107
909.115,1.111
909.350,1.120
909.586,1.119
909.822,1.121
910.057,1.131
910.293,1.148
910.528,1.157
910.764,1.147
910.999,1.132
911.235,1.129
911.470,1.121
911.706,1.126
911.941,1.126
912.176,1.114
912.412,1.109
912.647,1.103
912.882,1.113
913.117,1.119
913.352,1.117
913.588,1.112
913.823,1.109
914.058,1.110
914.293,1.112
914.528,1.106
914.763,1.090
914.999,1.091
915.234,1.092
915.469,1.097
915.704,1.104
915.939,1.100
916.174,1.088
916.409,1.083
916.645,1.093
916.880,1.112
917.115,1.110
917.350,1.104
917.586,1.100
917.821,1.100
918.056,1.101
918.292,1.114
918.527,1.113
918.763,1.103
918.998,1.097
919.234,1.106
919.469,1.124
919.705,1.117
919.940,1.111
920.176,1.109
920.412,1.112
920.648,1.119
920.884,1.114
921.120,1.111
921.356,1.108
921.592,1.112
921.828,1.103
922.065,1.104
922.301,1.106
922.537,1.121
922.774,1.130
923.011,1.119
923.247,1.099
923.484,1.094
923.721,1.113
923.958,1.119
924.195,1.117
924.433,1.108
924.670,1.100
924.908,1.092
925.145,1.093
925.383,1.107
925.621,1.116
925.859,1.112
926.097,1.113
926.335,1.120
926.574,1.116
926.813,1.123
927.051,1.121
927.290,1.114
927.529,1.119
927.769,1.137
928.008,1.140
928.248,1.126
928.487,1.110
928.727,1.114
928.967,1.122
929.208,1.129
929.448,1.123
929.689,1.113
929.930,1.104
930.171,1.091
930.413,1.089
930.654,1.106
930.896,1.103
931.138,1.090
931.380,1.090
931.623,1.090
931.865,1.099
932.108,1.116
932.352,1.114
932.595,1.116
932.839,1.119
933.083,1.117
933.327,1.113
933.571,1.114
933.816,1.111
934.061,1.113
934.307,1.117
934.552,1.102
934.798,1.092
935.045,1.101
935.291,1.099
935.538,1.100
935.785,1.102
936.033,1.106
936.281,1.114
936.529,1.128
936.777,1.121
937.026,1.113
937.275,1.106
937.525,1.103
937.775,1.089
938.025,1.091
938.276,1.097
938.527,1.094
938.778,1.097
939.030,1.087
939.282,1.087
939.535,1.101
939.788,1.110
940.041,1.106
940.295,1.094
940.550,1.097
940.804,1.100
941.059,1.114
941.315,1.110
941.571,1.097
941.828,1.097
942.085,1.099
942.342,1.096
942.600,1.107
942.858,1.106
943.117,1.108
943.377,1.100
943.636,1.094
943.897,1.090
944.158,1.097
944.419,1.106
944.681,1.108
944.944,1.103
945.207,1.109
945.470,1.112
945.734,1.106
945.999,1.113
946.264,1.132
946.530,1.139
946.797,1.122
947.064,1.116
947.331,1.124
947.600,1.117
947.869,1.099
948.138,1.099
948.408,1.098
948.679,1.093
948.950,1.107
949.222,1.106
949.495,1.090
949.768,1.096
950.043,1.103
