Wavelength (nm),Intensity BB10.3,,C:/Users/Brend/Desktop/LED Spectras v2/Blinds/-Interference/Spectrometer Data (Newer).sp,,,BB10.3,
379.792,1.599,,2018-07-02 14:36:03,,Integration Time,100 ms,
380.000,1.593,,Analyze Light,,Number of Scans to Average,25,
380.209,1.594,,,,Smoothing,0,
380.418,1.598
380.627,1.605
380.837,1.619
381.048,1.637
381.259,1.624
381.471,1.615
381.683,1.622
381.896,1.634
382.110,1.632
382.324,1.626
382.538,1.651
382.753,1.663
382.969,1.658
383.185,1.634
383.402,1.635
383.619,1.643
383.837,1.658
384.055,1.669
384.274,1.680
384.493,1.685
384.712,1.681
384.932,1.681
385.153,1.687
385.374,1.691
385.596,1.687
385.818,1.697
386.040,1.719
386.263,1.724
386.487,1.721
386.710,1.705
386.935,1.705
387.159,1.703
387.385,1.700
387.610,1.693
387.836,1.689
388.063,1.701
388.289,1.703
388.517,1.702
388.744,1.712
388.972,1.709
389.201,1.726
389.430,1.725
389.659,1.723
389.889,1.729
390.119,1.737
390.349,1.735
390.580,1.739
390.811,1.746
391.042,1.743
391.274,1.740
391.507,1.743
391.739,1.737
391.972,1.732
392.205,1.734
392.439,1.745
392.673,1.756
392.907,1.761
393.142,1.767
393.377,1.778
393.612,1.788
393.848,1.798
394.084,1.790
394.320,1.791
394.557,1.786
394.794,1.788
395.031,1.792
395.269,1.800
395.507,1.814
395.745,1.813
395.983,1.806
396.222,1.809
396.461,1.819
396.700,1.827
396.940,1.843
397.180,1.835
397.420,1.827
397.660,1.825
397.901,1.823
398.142,1.826
398.383,1.832
398.625,1.814
398.866,1.810
399.108,1.832
399.351,1.856
399.593,1.871
399.836,1.853
400.079,1.851
400.322,1.848
400.566,1.850
400.809,1.844
401.053,1.841
401.298,1.844
401.542,1.852
401.787,1.864
402.031,1.875
402.277,1.875
402.522,1.882
402.767,1.877
403.013,1.883
403.259,1.878
403.505,1.887
403.752,1.880
403.998,1.876
404.245,1.880
404.492,1.902
404.739,1.916
404.986,1.913
405.234,1.921
405.482,1.919
405.730,1.916
405.978,1.918
406.226,1.927
406.475,1.905
406.723,1.900
406.972,1.916
407.221,1.924
407.470,1.922
407.720,1.924
407.969,1.928
408.219,1.908
408.469,1.930
408.719,1.936
408.969,1.931
409.219,1.945
409.470,1.955
409.720,1.946
409.971,1.958
410.222,1.968
410.473,1.968
410.724,1.961
410.976,1.966
411.227,1.979
411.479,1.991
411.731,1.982
411.983,1.979
412.235,1.974
412.487,1.969
412.740,1.965
412.992,1.978
413.245,1.972
413.497,1.972
413.750,1.970
414.003,1.974
414.257,1.968
414.510,1.964
414.763,1.973
415.017,1.989
415.270,1.992
415.524,1.993
415.778,1.981
416.032,1.980
416.286,1.986
416.540,1.997
416.794,2.001
417.049,2.016
417.303,2.005
417.558,2.001
417.812,2.006
418.067,2.001
418.322,2.002
418.577,2.012
418.832,1.998
419.088,1.989
419.343,1.981
419.598,1.991
419.854,1.983
420.109,1.997
420.365,2.007
420.621,2.016
420.876,2.018
421.132,2.027
421.388,2.020
421.645,2.001
421.901,2.008
422.157,2.023
422.413,2.029
422.670,2.030
422.926,2.024
423.183,2.028
423.439,2.018
423.696,2.037
423.953,2.054
424.210,2.085
424.467,2.093
424.724,2.077
424.981,2.075
425.238,2.064
425.495,2.076
425.753,2.106
426.010,2.125
426.267,2.139
426.525,2.151
426.782,2.179
427.040,2.192
427.298,2.219
427.555,2.240
427.813,2.254
428.071,2.267
428.329,2.301
428.587,2.322
428.845,2.343
429.103,2.374
429.361,2.405
429.619,2.432
429.878,2.478
430.136,2.511
430.394,2.560
430.653,2.599
430.911,2.669
431.170,2.730
431.428,2.781
431.687,2.836
431.946,2.910
432.204,2.970
432.463,3.043
432.722,3.141
432.981,3.220
433.240,3.294
433.499,3.407
433.758,3.513
434.017,3.638
434.276,3.728
434.535,3.832
434.794,3.930
435.053,4.067
435.312,4.190
435.572,4.334
435.831,4.462
436.090,4.634
436.350,4.824
436.609,5.007
436.869,5.175
437.128,5.367
437.388,5.546
437.647,5.732
437.907,5.924
438.166,6.159
438.426,6.373
438.686,6.613
438.946,6.845
439.205,7.100
439.465,7.335
439.725,7.625
439.985,7.928
440.245,8.216
440.505,8.485
440.765,8.797
441.025,9.106
441.285,9.464
441.545,9.810
441.805,10.171
442.065,10.521
442.325,10.929
442.585,11.313
442.846,11.757
443.106,12.174
443.366,12.683
443.626,13.171
443.887,13.665
444.147,14.224
444.407,14.779
444.668,15.322
444.928,15.941
445.189,16.570
445.449,17.271
445.710,17.946
445.970,18.668
446.231,19.453
446.491,20.270
446.752,21.111
447.012,21.992
447.273,22.876
447.534,23.837
447.794,24.728
448.055,25.709
448.316,26.734
448.577,27.791
448.837,28.923
449.098,30.057
449.359,31.183
449.620,32.367
449.881,33.502
450.142,34.680
450.403,35.824
450.664,37.044
450.924,38.297
451.185,39.522
451.446,40.731
451.707,41.911
451.969,43.062
452.230,44.232
452.491,45.308
452.752,46.310
453.013,47.278
453.274,48.196
453.535,49.050
453.796,49.789
454.058,50.486
454.319,51.083
454.580,51.648
454.841,52.055
455.103,52.344
455.364,52.498
455.625,52.562
455.887,52.600
456.148,52.458
456.409,52.258
456.671,52.008
456.932,51.608
457.194,51.119
457.455,50.519
457.716,49.832
457.978,49.097
458.239,48.314
458.501,47.469
458.763,46.586
459.024,45.654
459.286,44.653
459.547,43.592
459.809,42.562
460.071,41.478
460.332,40.388
460.594,39.346
460.856,38.280
461.117,37.209
461.379,36.164
461.641,35.188
461.903,34.211
462.164,33.265
462.426,32.343
462.688,31.494
462.950,30.652
463.212,29.873
463.474,29.100
463.736,28.354
463.998,27.655
464.260,27.072
464.522,26.465
464.784,25.907
465.046,25.388
465.308,24.877
465.570,24.449
465.832,24.039
466.094,23.620
466.356,23.228
466.618,22.885
466.880,22.537
467.142,22.163
467.405,21.794
467.667,21.465
467.929,21.182
468.191,20.871
468.454,20.558
468.716,20.208
468.978,19.864
469.241,19.505
469.503,19.151
469.765,18.832
470.028,18.490
470.290,18.144
470.552,17.822
470.815,17.483
471.077,17.151
471.340,16.788
471.602,16.457
471.865,16.105
472.128,15.758
472.390,15.376
472.653,15.042
472.915,14.692
473.178,14.335
473.441,13.969
473.703,13.610
473.966,13.254
474.229,12.918
474.492,12.586
474.755,12.222
475.017,11.858
475.280,11.567
475.543,11.246
475.806,10.925
476.069,10.569
476.332,10.269
476.595,9.962
476.858,9.686
477.121,9.379
477.384,9.103
477.647,8.838
477.910,8.618
478.173,8.383
478.436,8.161
478.699,7.910
478.962,7.696
479.226,7.491
479.489,7.313
479.752,7.133
480.015,6.975
480.279,6.789
480.542,6.630
480.805,6.446
481.069,6.286
481.332,6.108
481.595,5.992
481.859,5.860
482.122,5.766
482.386,5.621
482.649,5.494
482.913,5.360
483.177,5.244
483.440,5.106
483.704,4.993
483.967,4.887
484.231,4.796
484.495,4.670
484.759,4.584
485.022,4.486
485.286,4.384
485.550,4.261
485.814,4.171
486.078,4.038
486.342,3.948
486.606,3.872
486.869,3.810
487.133,3.734
487.397,3.664
487.662,3.577
487.926,3.494
488.190,3.403
488.454,3.347
488.718,3.258
488.982,3.193
489.246,3.091
489.511,3.022
489.775,2.947
490.039,2.877
490.304,2.819
490.568,2.749
490.832,2.681
491.097,2.643
491.361,2.598
491.626,2.554
491.890,2.505
492.155,2.460
492.419,2.423
492.684,2.391
492.949,2.341
493.213,2.291
493.478,2.262
493.743,2.238
494.008,2.185
494.272,2.140
494.537,2.112
494.802,2.093
495.067,2.074
495.332,2.065
495.597,2.039
495.862,2.020
496.127,1.987
496.392,1.967
496.657,1.938
496.922,1.912
497.187,1.892
497.452,1.885
497.718,1.884
497.983,1.890
498.248,1.865
498.513,1.841
498.779,1.829
499.044,1.832
499.310,1.821
499.575,1.794
499.841,1.784
500.106,1.780
500.372,1.763
500.637,1.743
500.903,1.747
501.168,1.759
501.434,1.733
501.700,1.704
501.966,1.685
502.231,1.685
502.497,1.679
502.763,1.663
503.029,1.640
503.295,1.641
503.561,1.636
503.827,1.631
504.093,1.633
504.359,1.626
504.625,1.621
504.891,1.624
505.157,1.610
505.423,1.606
505.690,1.581
505.956,1.558
506.222,1.556
506.489,1.572
506.755,1.589
507.021,1.592
507.288,1.592
507.554,1.593
507.821,1.573
508.087,1.556
508.354,1.552
508.621,1.558
508.887,1.539
509.154,1.532
509.421,1.536
509.687,1.531
509.954,1.507
510.221,1.499
510.488,1.498
510.755,1.518
511.022,1.532
511.289,1.524
511.556,1.492
511.823,1.485
512.090,1.489
512.357,1.500
512.624,1.485
512.891,1.478
513.159,1.472
513.426,1.463
513.693,1.460
513.960,1.465
514.228,1.459
514.495,1.459
514.763,1.456
515.030,1.453
515.298,1.451
515.565,1.449
515.833,1.460
516.100,1.455
516.368,1.446
516.636,1.445
516.904,1.433
517.171,1.445
517.439,1.441
517.707,1.435
517.975,1.432
518.243,1.445
518.511,1.450
518.779,1.438
519.047,1.411
519.315,1.425
519.583,1.418
519.851,1.397
520.119,1.389
520.387,1.396
520.656,1.388
520.924,1.397
521.192,1.409
521.461,1.410
521.729,1.420
521.997,1.422
522.266,1.407
522.534,1.411
522.803,1.413
523.071,1.414
523.340,1.402
523.609,1.392
523.877,1.385
524.146,1.385
524.415,1.387
524.684,1.394
524.952,1.396
525.221,1.378
525.490,1.383
525.759,1.404
526.028,1.400
526.297,1.386
526.566,1.379
526.835,1.380
527.104,1.378
527.373,1.381
527.642,1.383
527.912,1.373
528.181,1.362
528.450,1.368
528.719,1.373
528.989,1.382
529.258,1.404
529.528,1.407
529.797,1.401
530.067,1.399
530.336,1.394
530.606,1.375
530.875,1.368
531.145,1.357
531.414,1.364
531.684,1.377
531.954,1.381
532.224,1.365
532.493,1.362
532.763,1.353
533.033,1.365
533.303,1.374
533.573,1.377
533.843,1.368
534.113,1.345
534.383,1.345
534.653,1.339
534.923,1.352
535.193,1.360
535.463,1.355
535.733,1.368
536.004,1.377
536.274,1.371
536.544,1.369
536.814,1.353
537.085,1.346
537.355,1.353
537.626,1.361
537.896,1.365
538.166,1.364
538.437,1.356
538.707,1.352
538.978,1.348
539.249,1.364
539.519,1.373
539.790,1.359
540.061,1.334
540.331,1.338
540.602,1.352
540.873,1.355
541.144,1.344
541.414,1.359
541.685,1.356
541.956,1.350
542.227,1.354
542.498,1.362
542.769,1.352
543.040,1.353
543.311,1.364
543.582,1.370
543.853,1.374
544.124,1.367
544.396,1.367
544.667,1.368
544.938,1.372
545.209,1.363
545.480,1.338
545.752,1.357
546.023,1.364
546.294,1.362
546.566,1.346
546.837,1.342
547.109,1.338
547.380,1.343
547.652,1.343
547.923,1.339
548.195,1.342
548.466,1.364
548.738,1.374
549.009,1.374
549.281,1.364
549.553,1.358
549.824,1.342
550.096,1.328
550.368,1.332
550.640,1.340
550.911,1.338
551.183,1.353
551.455,1.375
551.727,1.394
551.999,1.386
552.271,1.363
552.543,1.354
552.815,1.349
553.087,1.351
553.359,1.368
553.631,1.377
553.903,1.367
554.175,1.370
554.447,1.385
554.719,1.377
554.991,1.370
555.263,1.370
555.535,1.365
555.808,1.359
556.080,1.356
556.352,1.343
556.624,1.338
556.897,1.338
557.169,1.339
557.441,1.340
557.714,1.339
557.986,1.338
558.258,1.336
558.531,1.331
558.803,1.345
559.076,1.353
559.348,1.350
559.621,1.342
559.893,1.343
560.166,1.344
560.438,1.335
560.711,1.331
560.983,1.340
561.256,1.342
561.528,1.348
561.801,1.358
562.074,1.359
562.346,1.358
562.619,1.363
562.892,1.365
563.164,1.358
563.437,1.363
563.710,1.363
563.983,1.355
564.255,1.344
564.528,1.343
564.801,1.357
565.074,1.366
565.346,1.355
565.619,1.343
565.892,1.346
566.165,1.352
566.438,1.346
566.711,1.326
566.984,1.330
567.257,1.333
567.529,1.329
567.802,1.341
568.075,1.361
568.348,1.357
568.621,1.351
568.894,1.356
569.167,1.348
569.440,1.347
569.713,1.341
569.986,1.329
570.259,1.335
570.532,1.333
570.805,1.335
571.078,1.346
571.351,1.352
571.625,1.359
571.898,1.357
572.171,1.333
572.444,1.322
572.717,1.334
572.990,1.354
573.263,1.356
573.536,1.340
573.809,1.326
574.083,1.323
574.356,1.326
574.629,1.344
574.902,1.355
575.175,1.351
575.448,1.337
575.721,1.322
575.995,1.324
576.268,1.329
576.541,1.323
576.814,1.336
577.087,1.340
577.361,1.336
577.634,1.332
577.907,1.333
578.180,1.313
578.453,1.305
578.727,1.324
579.000,1.324
579.273,1.325
579.546,1.338
579.820,1.354
580.093,1.363
580.366,1.355
580.639,1.339
580.913,1.327
581.186,1.330
581.459,1.330
581.732,1.328
582.005,1.317
582.279,1.313
582.552,1.313
582.825,1.314
583.098,1.320
583.372,1.322
583.645,1.328
583.918,1.330
584.191,1.331
584.464,1.335
584.738,1.331
585.011,1.335
585.284,1.330
585.557,1.323
585.831,1.317
586.104,1.328
586.377,1.347
586.650,1.365
586.923,1.365
587.196,1.358
587.470,1.346
587.743,1.338
588.016,1.337
588.289,1.336
588.562,1.341
588.835,1.353
589.109,1.335
589.382,1.319
589.655,1.320
589.928,1.315
590.201,1.315
590.474,1.315
590.747,1.327
591.020,1.343
591.293,1.347
591.567,1.342
591.840,1.339
592.113,1.336
592.386,1.331
592.659,1.317
592.932,1.310
593.205,1.322
593.478,1.326
593.751,1.315
594.024,1.321
594.297,1.328
594.570,1.309
594.843,1.315
595.116,1.329
595.389,1.327
595.662,1.326
595.934,1.320
596.207,1.326
596.480,1.336
596.753,1.349
597.026,1.351
597.299,1.349
597.572,1.341
597.844,1.342
598.117,1.337
598.390,1.326
598.663,1.322
598.936,1.317
599.208,1.326
599.481,1.332
599.754,1.332
600.026,1.327
600.299,1.309
600.572,1.313
600.844,1.316
601.117,1.305
601.390,1.301
601.662,1.309
601.935,1.304
602.207,1.302
602.480,1.310
602.752,1.321
603.025,1.312
603.297,1.305
603.570,1.315
603.842,1.326
604.115,1.337
604.387,1.332
604.660,1.340
604.932,1.334
605.204,1.329
605.477,1.335
605.749,1.338
606.021,1.340
606.294,1.332
606.566,1.329
606.838,1.319
607.110,1.331
607.383,1.336
607.655,1.333
607.927,1.333
608.199,1.337
608.471,1.341
608.743,1.344
609.015,1.330
609.287,1.326
609.559,1.323
609.831,1.329
610.103,1.334
610.375,1.336
610.647,1.331
610.919,1.328
611.191,1.324
611.463,1.327
611.735,1.330
612.007,1.322
612.278,1.316
612.550,1.309
612.822,1.315
613.094,1.327
613.365,1.330
613.637,1.324
613.909,1.339
614.180,1.332
614.452,1.335
614.723,1.340
614.995,1.337
615.266,1.326
615.538,1.327
615.809,1.345
616.081,1.341
616.352,1.331
616.623,1.323
616.895,1.322
617.166,1.320
617.437,1.318
617.709,1.315
617.980,1.323
618.251,1.328
618.522,1.331
618.793,1.337
619.065,1.358
619.336,1.364
619.607,1.333
619.878,1.325
620.149,1.347
620.420,1.357
620.691,1.332
620.962,1.330
621.232,1.340
621.503,1.340
621.774,1.324
622.045,1.332
622.316,1.338
622.586,1.354
622.857,1.361
623.128,1.360
623.398,1.350
623.669,1.345
623.940,1.341
624.210,1.323
624.481,1.318
624.751,1.337
625.021,1.329
625.292,1.320
625.562,1.323
625.833,1.327
626.103,1.319
626.373,1.311
626.643,1.308
626.914,1.314
627.184,1.320
627.454,1.327
627.724,1.321
627.994,1.324
628.264,1.331
628.534,1.327
628.804,1.317
629.074,1.322
629.344,1.331
629.614,1.328
629.884,1.323
630.154,1.308
630.424,1.297
630.693,1.291
630.963,1.284
631.233,1.282
631.502,1.284
631.772,1.302
632.041,1.315
632.311,1.321
632.581,1.322
632.850,1.320
633.119,1.310
633.389,1.303
633.658,1.302
633.928,1.296
634.197,1.306
634.466,1.317
634.735,1.331
635.004,1.334
635.274,1.321
635.543,1.317
635.812,1.316
636.081,1.322
636.350,1.323
636.619,1.320
636.888,1.317
637.157,1.319
637.426,1.324
637.694,1.328
637.963,1.322
638.232,1.315
638.501,1.314
638.769,1.316
639.038,1.323
639.307,1.326
639.575,1.336
639.844,1.335
640.112,1.316
640.381,1.307
640.649,1.303
640.917,1.312
641.186,1.316
641.454,1.310
641.722,1.318
641.991,1.317
642.259,1.310
642.527,1.299
642.795,1.306
643.063,1.313
643.331,1.294
643.599,1.296
643.867,1.300
644.135,1.310
644.403,1.316
644.671,1.325
644.939,1.322
645.206,1.332
645.474,1.330
645.742,1.320
646.009,1.304
646.277,1.303
646.545,1.310
646.812,1.320
647.080,1.334
647.347,1.337
647.615,1.334
647.882,1.332
648.149,1.314
648.417,1.303
648.684,1.305
648.951,1.309
649.219,1.322
649.486,1.328
649.753,1.327
650.020,1.323
650.287,1.308
650.554,1.303
650.821,1.305
651.088,1.298
651.355,1.305
651.622,1.321
651.889,1.315
652.155,1.312
652.422,1.303
652.689,1.306
652.956,1.319
653.222,1.320
653.489,1.329
653.755,1.352
654.022,1.333
654.288,1.313
654.555,1.306
654.821,1.316
655.088,1.316
655.354,1.323
655.620,1.325
655.887,1.332
656.153,1.337
656.419,1.344
656.685,1.339
656.951,1.334
657.217,1.329
657.483,1.318
657.749,1.314
658.015,1.324
658.281,1.334
658.547,1.330
658.813,1.312
659.079,1.309
659.345,1.310
659.610,1.309
659.876,1.306
660.142,1.305
660.407,1.298
660.673,1.301
660.939,1.306
661.204,1.308
661.470,1.295
661.735,1.292
662.000,1.303
662.266,1.314
662.531,1.316
662.796,1.314
663.062,1.312
663.327,1.301
663.592,1.295
663.857,1.304
664.122,1.305
664.388,1.311
664.653,1.319
664.918,1.322
665.183,1.324
665.448,1.323
665.712,1.328
665.977,1.332
666.242,1.336
666.507,1.324
666.772,1.288
667.037,1.292
667.301,1.304
667.566,1.307
667.831,1.312
668.095,1.321
668.360,1.321
668.624,1.319
668.889,1.304
669.153,1.316
669.418,1.299
669.682,1.301
669.946,1.307
670.211,1.309
670.475,1.321
670.739,1.329
671.004,1.336
671.268,1.350
671.532,1.382
671.796,1.385
672.060,1.332
672.324,1.341
672.588,1.351
672.852,1.348
673.116,1.365
673.380,1.413
673.644,1.407
673.908,1.324
674.172,1.310
674.436,1.313
674.700,1.321
674.963,1.322
675.227,1.326
675.491,1.330
675.754,1.310
676.018,1.310
676.282,1.311
676.545,1.315
676.809,1.300
677.072,1.292
677.336,1.290
677.599,1.302
677.863,1.312
678.126,1.303
678.389,1.306
678.653,1.326
678.916,1.330
679.179,1.315
679.442,1.303
679.706,1.306
679.969,1.314
680.232,1.307
680.495,1.316
680.758,1.328
681.021,1.326
681.284,1.320
681.547,1.314
681.810,1.310
682.073,1.324
682.336,1.342
682.599,1.335
682.862,1.326
683.125,1.328
683.388,1.322
683.651,1.319
683.913,1.319
684.176,1.318
684.439,1.302
684.702,1.292
684.964,1.284
685.227,1.293
685.490,1.304
685.752,1.315
686.015,1.326
686.277,1.312
686.540,1.304
686.802,1.305
687.065,1.301
687.327,1.309
687.590,1.315
687.852,1.312
688.115,1.298
688.377,1.294
688.639,1.295
688.902,1.298
689.164,1.299
689.426,1.314
689.689,1.330
689.951,1.325
690.213,1.314
690.475,1.323
690.737,1.312
691.000,1.301
691.262,1.297
691.524,1.303
691.786,1.315
692.048,1.323
692.310,1.324
692.572,1.307
692.834,1.297
693.096,1.296
693.358,1.302
693.620,1.319
693.882,1.334
694.144,1.333
694.406,1.326
694.668,1.313
694.930,1.317
695.192,1.306
695.453,1.303
695.715,1.312
695.977,1.309
696.239,1.298
696.501,1.299
696.762,1.311
697.024,1.316
697.286,1.314
697.548,1.301
697.809,1.310
698.071,1.307
698.333,1.307
698.594,1.309
698.856,1.299
699.118,1.314
699.379,1.318
699.641,1.319
699.902,1.323
700.164,1.331
700.426,1.323
700.687,1.319
700.949,1.308
701.210,1.311
701.472,1.320
701.733,1.311
701.995,1.300
702.256,1.307
702.518,1.300
702.779,1.290
703.041,1.292
703.302,1.315
703.563,1.316
703.825,1.295
704.086,1.298
704.348,1.301
704.609,1.297
704.871,1.313
705.132,1.326
705.393,1.325
705.655,1.306
705.916,1.306
706.177,1.308
706.439,1.305
706.700,1.302
706.961,1.299
707.223,1.303
707.484,1.307
707.745,1.278
708.007,1.275
708.268,1.274
708.529,1.256
708.790,1.248
709.052,1.242
709.313,1.238
709.574,1.248
709.835,1.254
710.097,1.251
710.358,1.239
710.619,1.222
710.881,1.219
711.142,1.224
711.403,1.221
711.664,1.219
711.926,1.220
712.187,1.210
712.448,1.221
712.709,1.231
712.970,1.236
713.232,1.242
713.493,1.242
713.754,1.239
714.015,1.245
714.277,1.253
714.538,1.261
714.799,1.270
715.060,1.280
715.322,1.270
715.583,1.261
715.844,1.255
716.105,1.247
716.367,1.240
716.628,1.245
716.889,1.247
717.150,1.241
717.411,1.237
717.673,1.235
717.934,1.237
718.195,1.244
718.457,1.243
718.718,1.225
718.979,1.220
719.240,1.229
719.502,1.236
719.763,1.244
720.024,1.242
720.286,1.241
720.547,1.246
720.808,1.237
721.069,1.241
721.331,1.249
721.592,1.254
721.853,1.266
722.115,1.257
722.376,1.257
722.638,1.261
722.899,1.259
723.160,1.255
723.422,1.244
723.683,1.237
723.944,1.236
724.206,1.248
724.467,1.241
724.729,1.241
724.990,1.242
725.252,1.248
725.513,1.258
725.775,1.239
726.036,1.229
726.298,1.238
726.559,1.235
726.821,1.238
727.082,1.235
727.344,1.235
727.605,1.233
727.867,1.231
728.128,1.225
728.390,1.228
728.652,1.230
728.913,1.240
729.175,1.245
729.436,1.242
729.698,1.242
729.960,1.255
730.221,1.246
730.483,1.241
730.745,1.233
731.007,1.228
731.268,1.233
731.530,1.238
731.792,1.242
732.054,1.242
732.315,1.245
732.577,1.243
732.839,1.239
733.101,1.230
733.363,1.226
733.625,1.233
733.887,1.233
734.149,1.236
734.411,1.235
734.673,1.240
734.935,1.242
735.197,1.242
735.459,1.242
735.721,1.255
735.983,1.247
736.245,1.228
736.507,1.226
736.769,1.242
737.031,1.243
737.293,1.241
737.555,1.224
737.818,1.217
738.080,1.218
738.342,1.212
738.604,1.218
738.867,1.220
739.129,1.226
739.391,1.224
739.654,1.223
739.916,1.220
740.178,1.215
740.441,1.235
740.703,1.246
740.966,1.235
741.228,1.231
741.491,1.235
741.753,1.231
742.016,1.237
742.278,1.236
742.541,1.231
742.804,1.242
743.066,1.245
743.329,1.249
743.592,1.246
743.854,1.230
744.117,1.239
744.380,1.242
744.643,1.238
744.905,1.226
745.168,1.227
745.431,1.234
745.694,1.225
745.957,1.228
746.220,1.224
746.483,1.216
746.746,1.218
747.009,1.229
747.272,1.242
747.535,1.259
747.798,1.261
748.061,1.243
748.324,1.236
748.588,1.224
748.851,1.223
749.114,1.226
749.377,1.228
749.641,1.237
749.904,1.231
750.167,1.237
750.431,1.251
750.694,1.247
750.958,1.258
751.221,1.253
751.485,1.238
751.748,1.223
752.012,1.230
752.275,1.236
752.539,1.256
752.803,1.248
753.066,1.239
753.330,1.234
753.594,1.230
753.857,1.227
754.121,1.232
754.385,1.236
754.649,1.239
754.913,1.240
755.177,1.249
755.441,1.257
755.705,1.238
755.969,1.228
756.233,1.229
756.497,1.240
756.761,1.244
757.025,1.240
757.289,1.234
757.553,1.229
757.818,1.228
758.082,1.234
758.346,1.239
758.610,1.237
758.875,1.238
759.139,1.242
759.404,1.242
759.668,1.239
759.932,1.244
760.197,1.249
760.462,1.255
760.726,1.255
760.991,1.256
761.255,1.250
761.520,1.251
761.785,1.243
762.049,1.230
762.314,1.220
762.579,1.226
762.844,1.239
763.109,1.249
763.374,1.239
763.639,1.237
763.903,1.242
764.168,1.236
764.433,1.232
764.699,1.239
764.964,1.249
765.229,1.242
765.494,1.234
765.759,1.227
766.024,1.229
766.290,1.228
766.555,1.234
766.820,1.238
767.086,1.230
767.351,1.235
767.616,1.242
767.882,1.239
768.147,1.238
768.413,1.238
768.678,1.228
768.944,1.225
769.209,1.237
769.475,1.240
769.741,1.246
770.006,1.250
770.272,1.255
770.538,1.260
770.804,1.253
771.070,1.242
771.335,1.249
771.601,1.266
771.867,1.271
772.133,1.256
772.399,1.256
772.665,1.250
772.931,1.236
773.197,1.245
773.464,1.253
773.730,1.256
773.996,1.262
774.262,1.260
774.528,1.261
774.795,1.253
775.061,1.259
775.327,1.268
775.594,1.258
775.860,1.250
776.126,1.238
776.393,1.224
776.659,1.223
776.926,1.225
777.193,1.214
777.459,1.224
777.726,1.220
777.992,1.217
778.259,1.224
778.526,1.223
778.793,1.232
779.059,1.234
779.326,1.242
779.593,1.246
779.860,1.249
780.127,1.252
780.394,1.243
780.661,1.245
780.928,1.243
781.195,1.234
781.462,1.221
781.729,1.221
781.996,1.226
782.263,1.232
782.530,1.235
782.797,1.246
783.064,1.233
783.332,1.219
783.599,1.223
783.866,1.224
784.134,1.234
784.401,1.229
784.668,1.223
784.936,1.228
785.203,1.229
785.470,1.221
785.738,1.214
786.005,1.218
786.273,1.218
786.541,1.208
786.808,1.209
787.076,1.223
787.343,1.229
787.611,1.235
787.879,1.238
788.146,1.242
788.414,1.239
788.682,1.245
788.950,1.232
789.217,1.231
789.485,1.242
789.753,1.252
790.021,1.246
790.289,1.237
790.557,1.220
790.825,1.207
791.093,1.214
791.361,1.230
791.629,1.247
791.897,1.252
792.165,1.252
792.433,1.242
792.701,1.228
792.969,1.219
793.237,1.218
793.505,1.217
793.773,1.231
794.042,1.232
794.310,1.219
794.578,1.225
794.846,1.231
795.115,1.225
795.383,1.225
795.651,1.231
795.920,1.241
796.188,1.233
796.456,1.225
796.725,1.231
796.993,1.229
797.261,1.242
797.530,1.239
797.798,1.230
798.067,1.239
798.335,1.252
798.604,1.250
798.872,1.236
799.141,1.234
799.409,1.236
799.678,1.234
799.946,1.240
800.215,1.250
800.483,1.241
800.752,1.238
801.020,1.242
801.289,1.230
801.558,1.228
801.826,1.233
802.095,1.229
802.363,1.222
802.632,1.235
802.901,1.239
803.169,1.246
803.438,1.256
803.707,1.238
803.976,1.226
804.244,1.223
804.513,1.231
804.782,1.224
805.050,1.219
805.319,1.221
805.588,1.236
805.857,1.240
806.125,1.244
806.394,1.237
806.663,1.220
806.931,1.211
807.200,1.214
807.469,1.215
807.738,1.217
808.006,1.219
808.275,1.224
808.544,1.240
808.813,1.248
809.082,1.248
809.350,1.239
809.619,1.241
809.888,1.241
810.157,1.223
810.425,1.215
810.694,1.223
810.963,1.225
811.232,1.228
811.500,1.222
811.769,1.218
812.038,1.218
812.306,1.223
812.575,1.238
812.844,1.240
813.113,1.240
813.381,1.239
813.650,1.227
813.919,1.238
814.187,1.252
814.456,1.252
814.725,1.254
814.993,1.257
815.262,1.243
815.531,1.249
815.799,1.251
816.068,1.242
816.336,1.224
816.605,1.217
816.873,1.221
817.142,1.231
817.411,1.245
817.679,1.245
817.948,1.243
818.216,1.260
818.485,1.279
818.753,1.310
819.021,1.300
819.290,1.237
819.558,1.220
819.827,1.243
820.095,1.245
820.363,1.245
820.632,1.245
820.900,1.236
821.168,1.236
821.437,1.253
821.705,1.254
821.973,1.250
822.241,1.254
822.509,1.252
822.777,1.251
823.046,1.241
823.314,1.241
823.582,1.246
823.850,1.253
824.118,1.251
824.386,1.255
824.654,1.251
824.922,1.223
825.190,1.222
825.457,1.228
825.725,1.240
825.993,1.242
826.261,1.228
826.529,1.230
826.796,1.235
827.064,1.232
827.332,1.223
827.599,1.228
827.867,1.235
828.134,1.249
828.402,1.242
828.669,1.223
828.937,1.219
829.204,1.227
829.471,1.244
829.739,1.265
830.006,1.260
830.273,1.253
830.540,1.245
830.807,1.228
831.075,1.219
831.342,1.232
831.609,1.238
831.876,1.232
832.142,1.243
832.409,1.248
832.676,1.242
832.943,1.236
833.210,1.231
833.476,1.229
833.743,1.236
834.010,1.237
834.276,1.231
834.543,1.222
834.809,1.223
835.076,1.231
835.342,1.234
835.608,1.236
835.874,1.254
836.141,1.247
836.407,1.234
836.673,1.236
836.939,1.232
837.205,1.232
837.471,1.237
837.737,1.233
838.002,1.230
838.268,1.227
838.534,1.224
838.799,1.235
839.065,1.239
839.330,1.242
839.596,1.240
839.861,1.238
840.127,1.242
840.392,1.248
840.657,1.242
840.922,1.243
841.187,1.249
841.452,1.249
841.717,1.251
841.982,1.255
842.247,1.245
842.511,1.226
842.776,1.236
843.041,1.237
843.305,1.226
843.570,1.220
843.834,1.227
844.098,1.227
844.362,1.228
844.627,1.233
844.891,1.230
845.155,1.233
845.419,1.239
845.682,1.239
845.946,1.238
846.210,1.242
846.474,1.239
846.737,1.233
847.001,1.247
847.264,1.237
847.527,1.218
847.790,1.230
848.054,1.234
848.317,1.221
848.580,1.220
848.843,1.226
849.105,1.232
849.368,1.253
849.631,1.268
849.893,1.257
850.156,1.260
850.418,1.267
850.680,1.251
850.943,1.231
851.205,1.238
851.467,1.243
851.729,1.237
851.991,1.230
852.252,1.236
852.514,1.246
852.776,1.254
853.037,1.249
853.298,1.258
853.560,1.242
853.821,1.226
854.082,1.218
854.343,1.209
854.604,1.221
854.865,1.246
855.126,1.260
855.386,1.261
855.647,1.269
855.907,1.263
856.168,1.242
856.428,1.235
856.688,1.231
856.948,1.233
857.208,1.220
857.468,1.224
857.727,1.231
857.987,1.237
858.247,1.235
858.506,1.251
858.765,1.259
859.024,1.236
859.284,1.220
859.543,1.222
859.801,1.220
860.060,1.220
860.319,1.235
860.577,1.250
860.836,1.253
861.094,1.255
861.352,1.251
861.611,1.237
861.869,1.227
862.127,1.220
862.384,1.229
862.642,1.240
862.900,1.245
863.157,1.263
863.414,1.256
863.672,1.231
863.929,1.220
864.186,1.217
864.443,1.222
864.699,1.233
864.956,1.236
865.212,1.234
865.469,1.222
865.725,1.231
865.981,1.246
866.237,1.253
866.493,1.252
866.749,1.248
867.005,1.230
867.260,1.239
867.516,1.232
867.771,1.223
868.026,1.224
868.282,1.235
868.536,1.252
868.791,1.250
869.046,1.233
869.301,1.225
869.555,1.224
869.809,1.230
870.064,1.244
870.318,1.242
870.572,1.245
870.826,1.246
871.079,1.217
871.333,1.218
871.586,1.226
871.840,1.229
872.093,1.229
872.346,1.229
872.599,1.238
872.852,1.253
873.105,1.268
873.357,1.263
873.610,1.246
873.862,1.250
874.114,1.251
874.366,1.246
874.618,1.248
874.870,1.242
875.121,1.219
875.373,1.223
875.624,1.238
875.876,1.239
876.127,1.228
876.378,1.235
876.629,1.234
876.879,1.234
877.130,1.243
877.381,1.239
877.631,1.219
877.881,1.220
878.131,1.234
878.381,1.238
878.631,1.246
878.881,1.256
879.130,1.249
879.380,1.244
879.629,1.242
879.878,1.233
880.127,1.230
880.376,1.232
880.625,1.230
880.873,1.242
881.122,1.252
881.370,1.253
881.618,1.249
881.866,1.232
882.114,1.225
882.362,1.228
882.610,1.239
882.857,1.245
883.105,1.240
883.352,1.230
883.599,1.222
883.846,1.221
884.093,1.218
884.340,1.219
884.586,1.228
884.833,1.238
885.079,1.230
885.325,1.238
885.571,1.238
885.817,1.234
886.063,1.245
886.309,1.250
886.554,1.247
886.800,1.262
887.045,1.265
887.290,1.252
887.535,1.231
887.780,1.229
888.025,1.243
888.270,1.259
888.514,1.271
888.758,1.270
889.003,1.257
889.247,1.242
889.491,1.227
889.735,1.244
889.978,1.251
890.222,1.246
890.465,1.246
890.709,1.242
890.952,1.236
891.195,1.226
891.438,1.224
891.681,1.232
891.923,1.233
892.166,1.245
892.408,1.256
892.651,1.243
892.893,1.232
893.135,1.227
893.377,1.228
893.619,1.233
893.861,1.232
894.102,1.230
894.344,1.239
894.585,1.260
894.826,1.272
895.067,1.273
895.308,1.251
895.549,1.238
895.790,1.217
896.031,1.213
896.271,1.219
896.512,1.236
896.752,1.242
896.992,1.244
897.232,1.239
897.472,1.235
897.712,1.231
897.952,1.248
898.191,1.266
898.431,1.246
898.670,1.245
898.910,1.262
899.149,1.263
899.388,1.277
899.627,1.279
899.866,1.269
900.105,1.258
900.343,1.249
900.582,1.242
900.820,1.249
901.059,1.254
901.297,1.261
901.535,1.255
901.773,1.227
902.011,1.220
902.249,1.221
902.487,1.209
902.725,1.217
902.963,1.226
903.200,1.227
903.438,1.222
903.675,1.226
903.912,1.230
904.150,1.237
904.387,1.250
904.624,1.235
904.861,1.208
905.098,1.212
905.334,1.217
905.571,1.230
905.808,1.235
906.045,1.235
906.281,1.253
906.518,1.249
906.754,1.240
906.990,1.250
907.227,1.245
907.463,1.232
907.699,1.235
907.935,1.243
908.171,1.255
908.407,1.260
908.643,1.250
908.879,1.245
909.115,1.252
909.350,1.260
909.586,1.252
909.822,1.245
910.057,1.249
910.293,1.269
910.528,1.294
910.764,1.281
910.999,1.265
911.235,1.268
911.470,1.252
911.706,1.264
911.941,1.258
912.176,1.249
912.412,1.243
912.647,1.234
912.882,1.238
913.117,1.248
913.352,1.244
913.588,1.237
913.823,1.236
914.058,1.234
914.293,1.238
914.528,1.240
914.763,1.225
914.999,1.221
915.234,1.225
915.469,1.226
915.704,1.229
915.939,1.230
916.174,1.225
916.409,1.226
916.645,1.236
916.880,1.253
917.115,1.251
917.350,1.250
917.586,1.242
917.821,1.239
918.056,1.243
918.292,1.256
918.527,1.253
918.763,1.243
918.998,1.230
919.234,1.232
919.469,1.261
919.705,1.269
919.940,1.257
920.176,1.249
920.412,1.246
920.648,1.254
920.884,1.249
921.120,1.239
921.356,1.239
921.592,1.242
921.828,1.237
922.065,1.239
922.301,1.247
922.537,1.255
922.774,1.261
923.011,1.253
923.247,1.235
923.484,1.234
923.721,1.246
923.958,1.251
924.195,1.252
924.433,1.246
924.670,1.242
924.908,1.226
925.145,1.219
925.383,1.236
925.621,1.242
925.859,1.240
926.097,1.245
926.335,1.252
926.574,1.254
926.813,1.262
927.051,1.261
927.290,1.248
927.529,1.252
927.769,1.272
928.008,1.282
928.248,1.268
928.487,1.240
928.727,1.239
928.967,1.251
929.208,1.272
929.448,1.264
929.689,1.255
929.930,1.245
930.171,1.227
930.413,1.220
930.654,1.235
930.896,1.233
931.138,1.214
931.380,1.212
931.623,1.213
931.865,1.231
932.108,1.245
932.352,1.246
932.595,1.249
932.839,1.259
933.083,1.258
933.327,1.242
933.571,1.238
933.816,1.231
934.061,1.242
934.307,1.246
934.552,1.239
934.798,1.226
935.045,1.240
935.291,1.239
935.538,1.240
935.785,1.243
936.033,1.242
936.281,1.247
936.529,1.257
936.777,1.251
937.026,1.241
937.275,1.237
937.525,1.232
937.775,1.216
938.025,1.219
938.276,1.221
938.527,1.216
938.778,1.225
939.030,1.221
939.282,1.215
939.535,1.222
939.788,1.233
940.041,1.239
940.295,1.223
940.550,1.223
940.804,1.236
941.059,1.249
941.315,1.247
941.571,1.234
941.828,1.227
942.085,1.226
942.342,1.229
942.600,1.235
942.858,1.235
943.117,1.231
943.377,1.229
943.636,1.225
943.897,1.214
944.158,1.218
944.419,1.227
944.681,1.232
944.944,1.228
945.207,1.237
945.470,1.235
945.734,1.240
945.999,1.246
946.264,1.262
946.530,1.272
946.797,1.269
947.064,1.262
947.331,1.255
947.600,1.247
947.869,1.235
948.138,1.238
948.408,1.236
948.679,1.232
948.950,1.235
949.222,1.238
949.495,1.221
949.768,1.225
950.043,1.236
