Wavelength (nm),Intensity BB6.3,,C:/Users/Brend/Desktop/LED Spectras v2/Blinds/-Interference/Spectrometer Data (Newer).sp,,,BB6.3,
379.792,1.656,,2018-07-02 14:37:40,,Integration Time,100 ms,
380.000,1.635,,Analyze Light,,Number of Scans to Average,25,
380.209,1.628,,,,Smoothing,0,
380.418,1.640
380.627,1.661
380.837,1.665
381.048,1.678
381.259,1.672
381.471,1.659
381.683,1.671
381.896,1.687
382.110,1.685
382.324,1.678
382.538,1.697
382.753,1.709
382.969,1.701
383.185,1.684
383.402,1.685
383.619,1.680
383.837,1.697
384.055,1.712
384.274,1.741
384.493,1.751
384.712,1.752
384.932,1.749
385.153,1.751
385.374,1.747
385.596,1.754
385.818,1.749
386.040,1.764
386.263,1.772
386.487,1.776
386.710,1.766
386.935,1.756
387.159,1.746
387.385,1.752
387.610,1.759
387.836,1.762
388.063,1.768
388.289,1.781
388.517,1.775
388.744,1.771
388.972,1.769
389.201,1.789
389.430,1.784
389.659,1.786
389.889,1.796
390.119,1.801
390.349,1.805
390.580,1.816
390.811,1.823
391.042,1.820
391.274,1.817
391.507,1.828
391.739,1.815
391.972,1.816
392.205,1.818
392.439,1.833
392.673,1.845
392.907,1.846
393.142,1.848
393.377,1.860
393.612,1.865
393.848,1.870
394.084,1.866
394.320,1.871
394.557,1.870
394.794,1.881
395.031,1.880
395.269,1.894
395.507,1.899
395.745,1.906
395.983,1.912
396.222,1.909
396.461,1.915
396.700,1.932
396.940,1.948
397.180,1.942
397.420,1.948
397.660,1.941
397.901,1.936
398.142,1.937
398.383,1.942
398.625,1.935
398.866,1.935
399.108,1.963
399.351,1.979
399.593,1.983
399.836,1.956
400.079,1.957
400.322,1.963
400.566,1.954
400.809,1.949
401.053,1.950
401.298,1.963
401.542,1.970
401.787,1.993
402.031,2.000
402.277,1.996
402.522,1.997
402.767,2.003
403.013,2.002
403.259,2.000
403.505,2.005
403.752,2.000
403.998,2.000
404.245,2.008
404.492,2.032
404.739,2.036
404.986,2.038
405.234,2.041
405.482,2.045
405.730,2.038
405.978,2.033
406.226,2.044
406.475,2.036
406.723,2.033
406.972,2.047
407.221,2.058
407.470,2.060
407.720,2.061
407.969,2.072
408.219,2.053
408.469,2.089
408.719,2.093
408.969,2.081
409.219,2.090
409.470,2.110
409.720,2.103
409.971,2.113
410.222,2.125
410.473,2.130
410.724,2.121
410.976,2.123
411.227,2.126
411.479,2.141
411.731,2.135
411.983,2.129
412.235,2.125
412.487,2.126
412.740,2.124
412.992,2.140
413.245,2.145
413.497,2.147
413.750,2.146
414.003,2.150
414.257,2.134
414.510,2.126
414.763,2.136
415.017,2.155
415.270,2.163
415.524,2.164
415.778,2.166
416.032,2.167
416.286,2.161
416.540,2.170
416.794,2.166
417.049,2.175
417.303,2.171
417.558,2.171
417.812,2.176
418.067,2.173
418.322,2.169
418.577,2.173
418.832,2.164
419.088,2.152
419.343,2.146
419.598,2.158
419.854,2.140
420.109,2.164
420.365,2.168
420.621,2.184
420.876,2.194
421.132,2.203
421.388,2.197
421.645,2.191
421.901,2.192
422.157,2.193
422.413,2.191
422.670,2.197
422.926,2.187
423.183,2.183
423.439,2.183
423.696,2.200
423.953,2.215
424.210,2.254
424.467,2.267
424.724,2.252
424.981,2.245
425.238,2.250
425.495,2.269
425.753,2.293
426.010,2.296
426.267,2.310
426.525,2.317
426.782,2.343
427.040,2.352
427.298,2.377
427.555,2.408
427.813,2.430
428.071,2.451
428.329,2.481
428.587,2.505
428.845,2.528
429.103,2.558
429.361,2.596
429.619,2.627
429.878,2.671
430.136,2.698
430.394,2.759
430.653,2.800
430.911,2.879
431.170,2.953
431.428,3.023
431.687,3.076
431.946,3.152
432.204,3.211
432.463,3.283
432.722,3.366
432.981,3.449
433.240,3.530
433.499,3.648
433.758,3.747
434.017,3.866
434.276,3.960
434.535,4.066
434.794,4.169
435.053,4.307
435.312,4.438
435.572,4.600
435.831,4.753
436.090,4.914
436.350,5.074
436.609,5.252
436.869,5.429
437.128,5.617
437.388,5.789
437.647,5.987
437.907,6.208
438.166,6.454
438.426,6.652
438.686,6.884
438.946,7.112
439.205,7.364
439.465,7.626
439.725,7.940
439.985,8.233
440.245,8.532
440.505,8.799
440.765,9.122
441.025,9.459
441.285,9.795
441.545,10.136
441.805,10.507
442.065,10.895
442.325,11.318
442.585,11.709
442.846,12.154
443.106,12.622
443.366,13.145
443.626,13.663
443.887,14.218
444.147,14.763
444.407,15.337
444.668,15.945
444.928,16.582
445.189,17.255
445.449,17.960
445.710,18.681
445.970,19.458
446.231,20.254
446.491,21.122
446.752,22.029
447.012,22.919
447.273,23.868
447.534,24.856
447.794,25.862
448.055,26.900
448.316,27.957
448.577,29.119
448.837,30.304
449.098,31.511
449.359,32.747
449.620,33.985
449.881,35.200
450.142,36.455
450.403,37.720
450.664,39.018
450.924,40.362
451.185,41.711
451.446,43.053
451.707,44.389
451.969,45.703
452.230,47.000
452.491,48.251
452.752,49.456
453.013,50.613
453.274,51.734
453.535,52.813
453.796,53.830
454.058,54.712
454.319,55.525
454.580,56.282
454.841,56.991
455.103,57.599
455.364,58.086
455.625,58.472
455.887,58.774
456.148,58.991
456.409,59.076
456.671,59.075
456.932,58.968
457.194,58.725
457.455,58.417
457.716,58.039
457.978,57.512
458.239,56.954
458.501,56.298
458.763,55.552
459.024,54.779
459.286,53.939
459.547,53.042
459.809,52.094
460.071,51.028
460.332,49.956
460.594,48.907
460.856,47.826
461.117,46.787
461.379,45.712
461.641,44.657
461.903,43.604
462.164,42.591
462.426,41.560
462.688,40.557
462.950,39.599
463.212,38.640
463.474,37.761
463.736,36.849
463.998,36.013
464.260,35.227
464.522,34.499
464.784,33.802
465.046,33.134
465.308,32.453
465.570,31.870
465.832,31.287
466.094,30.719
466.356,30.191
466.618,29.702
466.880,29.198
467.142,28.697
467.405,28.242
467.667,27.765
467.929,27.353
468.191,26.952
468.454,26.525
468.716,26.090
468.978,25.695
469.241,25.228
469.503,24.733
469.765,24.324
470.028,23.950
470.290,23.557
470.552,23.138
470.815,22.725
471.077,22.336
471.340,21.893
471.602,21.468
471.865,21.065
472.128,20.673
472.390,20.209
472.653,19.813
472.915,19.413
473.178,19.011
473.441,18.593
473.703,18.176
473.966,17.727
474.229,17.270
474.492,16.843
474.755,16.436
475.017,16.033
475.280,15.663
475.543,15.250
475.806,14.882
476.069,14.493
476.332,14.096
476.595,13.695
476.858,13.342
477.121,12.993
477.384,12.647
477.647,12.295
477.910,11.987
478.173,11.674
478.436,11.378
478.699,11.075
478.962,10.793
479.226,10.522
479.489,10.276
479.752,10.022
480.015,9.777
480.279,9.534
480.542,9.287
480.805,9.036
481.069,8.809
481.332,8.575
481.595,8.389
481.859,8.200
482.122,8.059
482.386,7.869
482.649,7.665
482.913,7.476
483.177,7.307
483.440,7.111
483.704,6.962
483.967,6.815
484.231,6.684
484.495,6.529
484.759,6.405
485.022,6.248
485.286,6.089
485.550,5.948
485.814,5.815
486.078,5.640
486.342,5.523
486.606,5.392
486.869,5.282
487.133,5.158
487.397,5.050
487.662,4.935
487.926,4.829
488.190,4.698
488.454,4.590
488.718,4.450
488.982,4.356
489.246,4.221
489.511,4.133
489.775,4.018
490.039,3.915
490.304,3.819
490.568,3.738
490.832,3.623
491.097,3.560
491.361,3.476
491.626,3.406
491.890,3.328
492.155,3.259
492.419,3.169
492.684,3.107
492.949,3.007
493.213,2.940
493.478,2.894
493.743,2.843
494.008,2.762
494.272,2.696
494.537,2.635
494.802,2.604
495.067,2.557
495.332,2.528
495.597,2.484
495.862,2.444
496.127,2.394
496.392,2.362
496.657,2.329
496.922,2.280
497.187,2.247
497.452,2.236
497.718,2.211
497.983,2.205
498.248,2.174
498.513,2.145
498.779,2.112
499.044,2.104
499.310,2.080
499.575,2.037
499.841,2.008
500.106,2.002
500.372,1.976
500.637,1.954
500.903,1.951
501.168,1.957
501.434,1.923
501.700,1.894
501.966,1.864
502.231,1.861
502.497,1.845
502.763,1.833
503.029,1.818
503.295,1.806
503.561,1.788
503.827,1.777
504.093,1.771
504.359,1.762
504.625,1.750
504.891,1.741
505.157,1.724
505.423,1.716
505.690,1.696
505.956,1.674
506.222,1.671
506.489,1.680
506.755,1.695
507.021,1.696
507.288,1.685
507.554,1.681
507.821,1.675
508.087,1.671
508.354,1.662
508.621,1.668
508.887,1.654
509.154,1.634
509.421,1.630
509.687,1.623
509.954,1.609
510.221,1.601
510.488,1.591
510.755,1.599
511.022,1.609
511.289,1.607
511.556,1.573
511.823,1.568
512.090,1.566
512.357,1.577
512.624,1.560
512.891,1.554
513.159,1.546
513.426,1.530
513.693,1.526
513.960,1.537
514.228,1.538
514.495,1.535
514.763,1.537
515.030,1.530
515.298,1.511
515.565,1.494
515.833,1.499
516.100,1.495
516.368,1.495
516.636,1.497
516.904,1.485
517.171,1.497
517.439,1.491
517.707,1.480
517.975,1.477
518.243,1.475
518.511,1.479
518.779,1.458
519.047,1.435
519.315,1.454
519.583,1.458
519.851,1.443
520.119,1.436
520.387,1.437
520.656,1.430
520.924,1.440
521.192,1.444
521.461,1.453
521.729,1.456
521.997,1.453
522.266,1.448
522.534,1.448
522.803,1.449
523.071,1.450
523.340,1.443
523.609,1.431
523.877,1.420
524.146,1.422
524.415,1.417
524.684,1.427
524.952,1.426
525.221,1.411
525.490,1.409
525.759,1.429
526.028,1.435
526.297,1.420
526.566,1.410
526.835,1.405
527.104,1.408
527.373,1.419
527.642,1.423
527.912,1.410
528.181,1.391
528.450,1.393
528.719,1.392
528.989,1.400
529.258,1.411
529.528,1.414
529.797,1.397
530.067,1.388
530.336,1.399
530.606,1.393
530.875,1.396
531.145,1.393
531.414,1.391
531.684,1.404
531.954,1.411
532.224,1.394
532.493,1.388
532.763,1.375
533.033,1.370
533.303,1.385
533.573,1.393
533.843,1.387
534.113,1.369
534.383,1.366
534.653,1.363
534.923,1.379
535.193,1.385
535.463,1.383
535.733,1.391
536.004,1.406
536.274,1.400
536.544,1.392
536.814,1.373
537.085,1.361
537.355,1.369
537.626,1.389
537.896,1.397
538.166,1.392
538.437,1.392
538.707,1.382
538.978,1.376
539.249,1.380
539.519,1.390
539.790,1.375
540.061,1.355
540.331,1.369
540.602,1.386
540.873,1.385
541.144,1.377
541.414,1.380
541.685,1.372
541.956,1.373
542.227,1.368
542.498,1.368
542.769,1.361
543.040,1.368
543.311,1.380
543.582,1.387
543.853,1.388
544.124,1.386
544.396,1.388
544.667,1.388
544.938,1.388
545.209,1.378
545.480,1.352
545.752,1.361
546.023,1.368
546.294,1.375
546.566,1.358
546.837,1.358
547.109,1.356
547.380,1.360
547.652,1.359
547.923,1.351
548.195,1.358
548.466,1.376
548.738,1.388
549.009,1.396
549.281,1.377
549.553,1.363
549.824,1.352
550.096,1.342
550.368,1.349
550.640,1.353
550.911,1.355
551.183,1.365
551.455,1.393
551.727,1.406
551.999,1.396
552.271,1.371
552.543,1.355
552.815,1.357
553.087,1.364
553.359,1.382
553.631,1.390
553.903,1.381
554.175,1.379
554.447,1.384
554.719,1.382
554.991,1.377
555.263,1.376
555.535,1.369
555.808,1.352
556.080,1.357
556.352,1.354
556.624,1.361
556.897,1.366
557.169,1.354
557.441,1.354
557.714,1.349
557.986,1.343
558.258,1.353
558.531,1.347
558.803,1.357
559.076,1.361
559.348,1.357
559.621,1.340
559.893,1.347
560.166,1.358
560.438,1.359
560.711,1.352
560.983,1.350
561.256,1.350
561.528,1.361
561.801,1.368
562.074,1.374
562.346,1.378
562.619,1.387
562.892,1.383
563.164,1.372
563.437,1.371
563.710,1.367
563.983,1.353
564.255,1.337
564.528,1.342
564.801,1.363
565.074,1.372
565.346,1.361
565.619,1.350
565.892,1.356
566.165,1.365
566.438,1.355
566.711,1.349
566.984,1.360
567.257,1.355
567.529,1.355
567.802,1.369
568.075,1.378
568.348,1.372
568.621,1.365
568.894,1.371
569.167,1.370
569.440,1.367
569.713,1.354
569.986,1.328
570.259,1.335
570.532,1.336
570.805,1.350
571.078,1.360
571.351,1.354
571.625,1.354
571.898,1.363
572.171,1.345
572.444,1.332
572.717,1.338
572.990,1.358
573.263,1.360
573.536,1.348
573.809,1.334
574.083,1.326
574.356,1.333
574.629,1.355
574.902,1.374
575.175,1.367
575.448,1.361
575.721,1.344
575.995,1.343
576.268,1.340
576.541,1.341
576.814,1.356
577.087,1.360
577.361,1.358
577.634,1.360
577.907,1.357
578.180,1.339
578.453,1.333
578.727,1.339
579.000,1.340
579.273,1.346
579.546,1.362
579.820,1.368
580.093,1.366
580.366,1.356
580.639,1.346
580.913,1.340
581.186,1.346
581.459,1.341
581.732,1.340
582.005,1.335
582.279,1.330
582.552,1.331
582.825,1.337
583.098,1.332
583.372,1.333
583.645,1.347
583.918,1.347
584.191,1.342
584.464,1.343
584.738,1.343
585.011,1.344
585.284,1.344
585.557,1.334
585.831,1.334
586.104,1.351
586.377,1.364
586.650,1.383
586.923,1.380
587.196,1.375
587.470,1.377
587.743,1.355
588.016,1.355
588.289,1.348
588.562,1.351
588.835,1.357
589.109,1.345
589.382,1.330
589.655,1.328
589.928,1.323
590.201,1.319
590.474,1.326
590.747,1.342
591.020,1.353
591.293,1.349
591.567,1.350
591.840,1.351
592.113,1.347
592.386,1.340
592.659,1.327
592.932,1.325
593.205,1.345
593.478,1.344
593.751,1.339
594.024,1.334
594.297,1.330
594.570,1.314
594.843,1.323
595.116,1.342
595.389,1.345
595.662,1.330
595.934,1.326
596.207,1.336
596.480,1.348
596.753,1.358
597.026,1.361
597.299,1.355
597.572,1.352
597.844,1.346
598.117,1.337
598.390,1.332
598.663,1.336
598.936,1.338
599.208,1.342
599.481,1.346
599.754,1.340
600.026,1.335
600.299,1.322
600.572,1.324
600.844,1.333
601.117,1.324
601.390,1.312
601.662,1.319
601.935,1.317
602.207,1.312
602.480,1.327
602.752,1.331
603.025,1.322
603.297,1.313
603.570,1.319
603.842,1.334
604.115,1.346
604.387,1.344
604.660,1.347
604.932,1.329
605.204,1.330
605.477,1.346
605.749,1.352
606.021,1.358
606.294,1.356
606.566,1.347
606.838,1.338
607.110,1.347
607.383,1.354
607.655,1.348
607.927,1.343
608.199,1.346
608.471,1.346
608.743,1.346
609.015,1.331
609.287,1.326
609.559,1.328
609.831,1.337
610.103,1.337
610.375,1.336
610.647,1.325
610.919,1.320
611.191,1.324
611.463,1.342
611.735,1.342
612.007,1.326
612.278,1.318
612.550,1.322
612.822,1.329
613.094,1.336
613.365,1.339
613.637,1.331
613.909,1.342
614.180,1.341
614.452,1.335
614.723,1.333
614.995,1.325
615.266,1.321
615.538,1.334
615.809,1.342
616.081,1.330
616.352,1.316
616.623,1.317
616.895,1.319
617.166,1.322
617.437,1.322
617.709,1.319
617.980,1.328
618.251,1.340
618.522,1.338
618.793,1.335
619.065,1.356
619.336,1.374
619.607,1.349
619.878,1.340
620.149,1.356
620.420,1.360
620.691,1.347
620.962,1.345
621.232,1.350
621.503,1.349
621.774,1.333
622.045,1.341
622.316,1.340
622.586,1.349
622.857,1.359
623.128,1.367
623.398,1.357
623.669,1.345
623.940,1.335
624.210,1.326
624.481,1.327
624.751,1.345
625.021,1.335
625.292,1.327
625.562,1.332
625.833,1.335
626.103,1.328
626.373,1.319
626.643,1.311
626.914,1.322
627.184,1.334
627.454,1.333
627.724,1.326
627.994,1.323
628.264,1.325
628.534,1.327
628.804,1.316
629.074,1.320
629.344,1.331
629.614,1.337
629.884,1.337
630.154,1.323
630.424,1.314
630.693,1.307
630.963,1.301
631.233,1.292
631.502,1.293
631.772,1.318
632.041,1.335
632.311,1.339
632.581,1.333
632.850,1.332
633.119,1.329
633.389,1.313
633.658,1.314
633.928,1.319
634.197,1.324
634.466,1.326
634.735,1.324
635.004,1.333
635.274,1.325
635.543,1.322
635.812,1.326
636.081,1.324
636.350,1.322
636.619,1.320
636.888,1.320
637.157,1.317
637.426,1.330
637.694,1.341
637.963,1.329
638.232,1.324
638.501,1.321
638.769,1.313
639.038,1.321
639.307,1.336
639.575,1.347
639.844,1.348
640.112,1.331
640.381,1.322
640.649,1.318
640.917,1.324
641.186,1.328
641.454,1.333
641.722,1.335
641.991,1.335
642.259,1.341
642.527,1.326
642.795,1.326
643.063,1.321
643.331,1.308
643.599,1.312
643.867,1.320
644.135,1.331
644.403,1.337
644.671,1.347
644.939,1.334
645.206,1.338
645.474,1.337
645.742,1.332
646.009,1.318
646.277,1.304
646.545,1.309
646.812,1.320
647.080,1.328
647.347,1.335
647.615,1.334
647.882,1.328
648.149,1.307
648.417,1.301
648.684,1.306
648.951,1.316
649.219,1.331
649.486,1.333
649.753,1.332
650.020,1.321
650.287,1.303
650.554,1.301
650.821,1.301
651.088,1.298
651.355,1.304
651.622,1.323
651.889,1.321
652.155,1.325
652.422,1.318
652.689,1.322
652.956,1.330
653.222,1.328
653.489,1.341
653.755,1.364
654.022,1.347
654.288,1.327
654.555,1.321
654.821,1.321
655.088,1.328
655.354,1.337
655.620,1.335
655.887,1.347
656.153,1.349
656.419,1.346
656.685,1.334
656.951,1.333
657.217,1.330
657.483,1.322
657.749,1.325
658.015,1.324
658.281,1.325
658.547,1.321
658.813,1.299
659.079,1.308
659.345,1.318
659.610,1.319
659.876,1.317
660.142,1.321
660.407,1.326
660.673,1.324
660.939,1.328
661.204,1.323
661.470,1.307
661.735,1.301
662.000,1.314
662.266,1.322
662.531,1.311
662.796,1.310
663.062,1.311
663.327,1.299
663.592,1.302
663.857,1.312
664.122,1.311
664.388,1.319
664.653,1.326
664.918,1.340
665.183,1.338
665.448,1.327
665.712,1.329
665.977,1.331
666.242,1.338
666.507,1.330
666.772,1.297
667.037,1.297
667.301,1.302
667.566,1.306
667.831,1.312
668.095,1.315
668.360,1.310
668.624,1.314
668.889,1.308
669.153,1.328
669.418,1.322
669.682,1.317
669.946,1.326
670.211,1.329
670.475,1.337
670.739,1.345
671.004,1.351
671.268,1.360
671.532,1.398
671.796,1.409
672.060,1.354
672.324,1.353
672.588,1.353
672.852,1.349
673.116,1.365
673.380,1.418
673.644,1.413
673.908,1.325
674.172,1.318
674.436,1.327
674.700,1.332
674.963,1.333
675.227,1.335
675.491,1.334
675.754,1.325
676.018,1.329
676.282,1.329
676.545,1.326
676.809,1.314
677.072,1.310
677.336,1.302
677.599,1.301
677.863,1.308
678.126,1.309
678.389,1.321
678.653,1.338
678.916,1.329
679.179,1.319
679.442,1.310
679.706,1.325
679.969,1.320
680.232,1.312
680.495,1.315
680.758,1.336
681.021,1.336
681.284,1.322
681.547,1.308
681.810,1.307
682.073,1.329
682.336,1.346
682.599,1.333
682.862,1.318
683.125,1.324
683.388,1.335
683.651,1.339
683.913,1.338
684.176,1.329
684.439,1.322
684.702,1.316
684.964,1.306
685.227,1.305
685.490,1.316
685.752,1.332
686.015,1.345
686.277,1.334
686.540,1.332
686.802,1.314
687.065,1.303
687.327,1.316
687.590,1.328
687.852,1.314
688.115,1.299
688.377,1.290
688.639,1.303
688.902,1.306
689.164,1.307
689.426,1.325
689.689,1.343
689.951,1.342
690.213,1.332
690.475,1.334
690.737,1.329
691.000,1.316
691.262,1.313
691.524,1.314
691.786,1.320
692.048,1.333
692.310,1.342
692.572,1.324
692.834,1.304
693.096,1.307
693.358,1.311
693.620,1.326
693.882,1.335
694.144,1.336
694.406,1.334
694.668,1.326
694.930,1.332
695.192,1.324
695.453,1.326
695.715,1.326
695.977,1.329
696.239,1.316
696.501,1.314
696.762,1.320
697.024,1.329
697.286,1.322
697.548,1.310
697.809,1.317
698.071,1.307
698.333,1.304
698.594,1.305
698.856,1.304
699.118,1.310
699.379,1.314
699.641,1.309
699.902,1.324
700.164,1.325
700.426,1.320
700.687,1.319
700.949,1.316
701.210,1.319
701.472,1.311
701.733,1.307
701.995,1.302
702.256,1.308
702.518,1.304
702.779,1.295
703.041,1.300
703.302,1.324
703.563,1.328
703.825,1.313
704.086,1.308
704.348,1.311
704.609,1.304
704.871,1.314
705.132,1.329
705.393,1.322
705.655,1.303
705.916,1.308
706.177,1.308
706.439,1.307
706.700,1.304
706.961,1.302
707.223,1.297
707.484,1.294
707.745,1.275
708.007,1.272
708.268,1.272
708.529,1.257
708.790,1.255
709.052,1.247
709.313,1.249
709.574,1.255
709.835,1.254
710.097,1.248
710.358,1.238
710.619,1.233
710.881,1.226
711.142,1.231
711.403,1.224
711.664,1.213
711.926,1.219
712.187,1.212
712.448,1.225
712.709,1.234
712.970,1.234
713.232,1.250
713.493,1.253
713.754,1.254
714.015,1.250
714.277,1.255
714.538,1.259
714.799,1.272
715.060,1.279
715.322,1.268
715.583,1.261
715.844,1.255
716.105,1.235
716.367,1.226
716.628,1.235
716.889,1.242
717.150,1.233
717.411,1.224
717.673,1.231
717.934,1.242
718.195,1.245
718.457,1.240
718.718,1.222
718.979,1.218
719.240,1.226
719.502,1.240
719.763,1.245
720.024,1.246
720.286,1.239
720.547,1.240
720.808,1.233
721.069,1.232
721.331,1.238
721.592,1.242
721.853,1.249
722.115,1.243
722.376,1.247
722.638,1.248
722.899,1.242
723.160,1.240
723.422,1.228
723.683,1.223
723.944,1.228
724.206,1.237
724.467,1.232
724.729,1.230
724.990,1.234
725.252,1.249
725.513,1.251
725.775,1.231
726.036,1.218
726.298,1.216
726.559,1.226
726.821,1.227
727.082,1.222
727.344,1.227
727.605,1.225
727.867,1.227
728.128,1.224
728.390,1.229
728.652,1.232
728.913,1.250
729.175,1.263
729.436,1.247
729.698,1.241
729.960,1.247
730.221,1.236
730.483,1.229
730.745,1.224
731.007,1.230
731.268,1.227
731.530,1.227
731.792,1.226
732.054,1.228
732.315,1.232
732.577,1.242
732.839,1.243
733.101,1.229
733.363,1.223
733.625,1.224
733.887,1.236
734.149,1.230
734.411,1.224
734.673,1.233
734.935,1.236
735.197,1.229
735.459,1.222
735.721,1.234
735.983,1.238
736.245,1.229
736.507,1.226
736.769,1.242
737.031,1.244
737.293,1.242
737.555,1.227
737.818,1.222
738.080,1.217
738.342,1.213
738.604,1.208
738.867,1.217
739.129,1.217
739.391,1.214
739.654,1.219
739.916,1.227
740.178,1.223
740.441,1.228
740.703,1.236
740.966,1.231
741.228,1.232
741.491,1.232
741.753,1.234
742.016,1.238
742.278,1.227
742.541,1.228
742.804,1.234
743.066,1.229
743.329,1.232
743.592,1.234
743.854,1.228
744.117,1.234
744.380,1.243
744.643,1.237
744.905,1.228
745.168,1.228
745.431,1.225
745.694,1.220
745.957,1.225
746.220,1.225
746.483,1.215
746.746,1.215
747.009,1.220
747.272,1.235
747.535,1.258
747.798,1.256
748.061,1.244
748.324,1.229
748.588,1.216
748.851,1.220
749.114,1.223
749.377,1.217
749.641,1.219
749.904,1.225
750.167,1.238
750.431,1.248
750.694,1.244
750.958,1.249
751.221,1.248
751.485,1.237
751.748,1.225
752.012,1.231
752.275,1.245
752.539,1.252
752.803,1.243
753.066,1.230
753.330,1.218
753.594,1.218
753.857,1.220
754.121,1.216
754.385,1.226
754.649,1.233
754.913,1.233
755.177,1.242
755.441,1.249
755.705,1.238
755.969,1.226
756.233,1.227
756.497,1.237
756.761,1.238
757.025,1.230
757.289,1.222
757.553,1.230
757.818,1.230
758.082,1.234
758.346,1.240
758.610,1.243
758.875,1.246
759.139,1.239
759.404,1.233
759.668,1.230
759.932,1.226
760.197,1.233
760.462,1.244
760.726,1.236
760.991,1.234
761.255,1.236
761.520,1.237
761.785,1.237
762.049,1.226
762.314,1.218
762.579,1.221
762.844,1.239
763.109,1.244
763.374,1.237
763.639,1.227
763.903,1.227
764.168,1.217
764.433,1.214
764.699,1.228
764.964,1.236
765.229,1.226
765.494,1.223
765.759,1.233
766.024,1.232
766.290,1.222
766.555,1.222
766.820,1.228
767.086,1.227
767.351,1.230
767.616,1.229
767.882,1.222
768.147,1.220
768.413,1.223
768.678,1.218
768.944,1.220
769.209,1.231
769.475,1.233
769.741,1.239
770.006,1.238
770.272,1.243
770.538,1.255
770.804,1.247
771.070,1.238
771.335,1.240
771.601,1.253
771.867,1.258
772.133,1.253
772.399,1.248
772.665,1.238
772.931,1.230
773.197,1.243
773.464,1.248
773.730,1.254
773.996,1.261
774.262,1.254
774.528,1.249
774.795,1.246
775.061,1.257
775.327,1.269
775.594,1.259
775.860,1.246
776.126,1.234
776.393,1.216
776.659,1.215
776.926,1.221
777.193,1.215
777.459,1.226
777.726,1.233
777.992,1.231
778.259,1.228
778.526,1.220
778.793,1.220
779.059,1.220
779.326,1.235
779.593,1.236
779.860,1.236
780.127,1.243
780.394,1.238
780.661,1.235
780.928,1.236
781.195,1.219
781.462,1.217
781.729,1.227
781.996,1.229
782.263,1.232
782.530,1.236
782.797,1.248
783.064,1.238
783.332,1.223
783.599,1.226
783.866,1.232
784.134,1.232
784.401,1.226
784.668,1.228
784.936,1.233
785.203,1.236
785.470,1.227
785.738,1.217
786.005,1.224
786.273,1.214
786.541,1.204
786.808,1.208
787.076,1.212
787.343,1.211
787.611,1.223
787.879,1.239
788.146,1.242
788.414,1.239
788.682,1.244
788.950,1.237
789.217,1.229
789.485,1.242
789.753,1.248
790.021,1.241
790.289,1.222
790.557,1.211
790.825,1.217
791.093,1.223
791.361,1.242
791.629,1.247
791.897,1.245
792.165,1.252
792.433,1.242
792.701,1.239
792.969,1.230
793.237,1.220
793.505,1.226
793.773,1.236
794.042,1.238
794.310,1.223
794.578,1.221
794.846,1.223
795.115,1.221
795.383,1.218
795.651,1.220
795.920,1.233
796.188,1.227
796.456,1.220
796.725,1.233
796.993,1.238
797.261,1.249
797.530,1.249
797.798,1.242
798.067,1.242
798.335,1.248
798.604,1.248
798.872,1.234
799.141,1.220
799.409,1.217
799.678,1.223
799.946,1.234
800.215,1.241
800.483,1.232
800.752,1.226
801.020,1.232
801.289,1.225
801.558,1.219
801.826,1.230
802.095,1.220
802.363,1.209
802.632,1.227
802.901,1.234
803.169,1.237
803.438,1.238
803.707,1.228
803.976,1.212
804.244,1.219
804.513,1.229
804.782,1.228
805.050,1.216
805.319,1.217
805.588,1.232
805.857,1.240
806.125,1.248
806.394,1.243
806.663,1.239
806.931,1.223
807.200,1.215
807.469,1.216
807.738,1.216
808.006,1.210
808.275,1.221
808.544,1.242
808.813,1.243
809.082,1.243
809.350,1.230
809.619,1.229
809.888,1.233
810.157,1.218
810.425,1.214
810.694,1.218
810.963,1.221
811.232,1.228
811.500,1.217
811.769,1.206
812.038,1.204
812.306,1.217
812.575,1.231
812.844,1.237
813.113,1.241
813.381,1.242
813.650,1.235
813.919,1.243
814.187,1.249
814.456,1.246
814.725,1.251
814.993,1.248
815.262,1.235
815.531,1.242
815.799,1.237
816.068,1.226
816.336,1.210
816.605,1.201
816.873,1.210
817.142,1.216
817.411,1.232
817.679,1.235
817.948,1.236
818.216,1.254
818.485,1.277
818.753,1.305
819.021,1.295
819.290,1.231
819.558,1.207
819.827,1.225
820.095,1.232
820.363,1.237
820.632,1.236
820.900,1.227
821.168,1.226
821.437,1.239
821.705,1.242
821.973,1.239
822.241,1.248
822.509,1.249
822.777,1.244
823.046,1.238
823.314,1.238
823.582,1.245
823.850,1.246
824.118,1.244
824.386,1.253
824.654,1.242
824.922,1.213
825.190,1.213
825.457,1.219
825.725,1.232
825.993,1.232
826.261,1.224
826.529,1.230
826.796,1.235
827.064,1.229
827.332,1.222
827.599,1.222
827.867,1.229
828.134,1.234
828.402,1.235
828.669,1.222
828.937,1.222
829.204,1.232
829.471,1.248
829.739,1.258
830.006,1.251
830.273,1.242
830.540,1.238
830.807,1.229
831.075,1.217
831.342,1.228
831.609,1.236
831.876,1.232
832.142,1.251
832.409,1.252
832.676,1.240
832.943,1.222
833.210,1.213
833.476,1.221
833.743,1.228
834.010,1.236
834.276,1.232
834.543,1.214
834.809,1.208
835.076,1.221
835.342,1.225
835.608,1.225
835.874,1.247
836.141,1.238
836.407,1.230
836.673,1.237
836.939,1.231
837.205,1.231
837.471,1.239
837.737,1.231
838.002,1.231
838.268,1.230
838.534,1.226
838.799,1.229
839.065,1.227
839.330,1.238
839.596,1.238
839.861,1.238
840.127,1.244
840.392,1.245
840.657,1.236
840.922,1.241
841.187,1.258
841.452,1.250
841.717,1.245
841.982,1.251
842.247,1.237
842.511,1.221
842.776,1.231
843.041,1.233
843.305,1.230
843.570,1.223
843.834,1.228
844.098,1.231
844.362,1.224
844.627,1.229
844.891,1.217
845.155,1.219
845.419,1.233
845.682,1.242
845.946,1.246
846.210,1.252
846.474,1.246
846.737,1.236
847.001,1.242
847.264,1.228
847.527,1.214
847.790,1.226
848.054,1.229
848.317,1.226
848.580,1.229
848.843,1.231
849.105,1.232
849.368,1.251
849.631,1.258
849.893,1.246
850.156,1.256
850.418,1.269
850.680,1.248
850.943,1.227
851.205,1.239
851.467,1.244
851.729,1.236
851.991,1.236
852.252,1.243
852.514,1.247
852.776,1.246
853.037,1.239
853.298,1.245
853.560,1.237
853.821,1.233
854.082,1.227
854.343,1.221
854.604,1.226
854.865,1.249
855.126,1.260
855.386,1.254
855.647,1.263
855.907,1.252
856.168,1.237
856.428,1.232
856.688,1.224
856.948,1.223
857.208,1.209
857.468,1.211
857.727,1.222
857.987,1.229
858.247,1.229
858.506,1.240
858.765,1.251
859.024,1.236
859.284,1.222
859.543,1.223
859.801,1.215
860.060,1.219
860.319,1.237
860.577,1.250
860.836,1.249
861.094,1.255
861.352,1.259
861.611,1.244
861.869,1.232
862.127,1.227
862.384,1.232
862.642,1.235
862.900,1.231
863.157,1.241
863.414,1.244
863.672,1.232
863.929,1.220
864.186,1.214
864.443,1.220
864.699,1.228
864.956,1.226
865.212,1.226
865.469,1.218
865.725,1.233
865.981,1.242
866.237,1.240
866.493,1.240
866.749,1.245
867.005,1.231
867.260,1.229
867.516,1.223
867.771,1.216
868.026,1.219
868.282,1.229
868.536,1.243
868.791,1.237
869.046,1.221
869.301,1.215
869.555,1.216
869.809,1.228
870.064,1.240
870.318,1.240
870.572,1.246
870.826,1.251
871.079,1.219
871.333,1.221
871.586,1.232
871.840,1.227
872.093,1.227
872.346,1.232
872.599,1.242
872.852,1.252
873.105,1.257
873.357,1.261
873.610,1.248
873.862,1.242
874.114,1.246
874.366,1.251
874.618,1.248
874.870,1.234
875.121,1.216
875.373,1.212
875.624,1.224
875.876,1.233
876.127,1.225
876.378,1.227
876.629,1.226
876.879,1.224
877.130,1.234
877.381,1.229
877.631,1.214
877.881,1.209
878.131,1.211
878.381,1.227
878.631,1.242
878.881,1.260
879.130,1.256
879.380,1.242
879.629,1.232
879.878,1.226
880.127,1.219
880.376,1.227
880.625,1.235
880.873,1.248
881.122,1.253
881.370,1.248
881.618,1.236
881.866,1.223
882.114,1.214
882.362,1.222
882.610,1.230
882.857,1.240
883.105,1.244
883.352,1.235
883.599,1.222
883.846,1.216
884.093,1.208
884.340,1.208
884.586,1.231
884.833,1.243
885.079,1.234
885.325,1.227
885.571,1.229
885.817,1.230
886.063,1.239
886.309,1.245
886.554,1.248
886.800,1.259
887.045,1.255
887.290,1.248
887.535,1.230
887.780,1.225
888.025,1.234
888.270,1.248
888.514,1.261
888.758,1.265
889.003,1.256
889.247,1.240
889.491,1.218
889.735,1.244
889.978,1.255
890.222,1.247
890.465,1.240
890.709,1.233
890.952,1.229
891.195,1.229
891.438,1.226
891.681,1.220
891.923,1.219
892.166,1.230
892.408,1.237
892.651,1.229
892.893,1.220
893.135,1.225
893.377,1.223
893.619,1.225
893.861,1.230
894.102,1.239
894.344,1.237
894.585,1.253
894.826,1.269
895.067,1.263
895.308,1.242
895.549,1.235
895.790,1.221
896.031,1.212
896.271,1.220
896.512,1.234
896.752,1.244
896.992,1.242
897.232,1.245
897.472,1.231
897.712,1.240
897.952,1.260
898.191,1.261
898.431,1.238
898.670,1.232
898.910,1.243
899.149,1.253
899.388,1.275
899.627,1.276
899.866,1.261
900.105,1.252
900.343,1.242
900.582,1.240
900.820,1.242
901.059,1.256
901.297,1.268
901.535,1.266
901.773,1.235
902.011,1.224
902.249,1.225
902.487,1.213
902.725,1.218
902.963,1.230
903.200,1.227
903.438,1.213
903.675,1.215
903.912,1.223
904.150,1.229
904.387,1.240
904.624,1.226
904.861,1.212
905.098,1.218
905.334,1.220
905.571,1.221
905.808,1.213
906.045,1.223
906.281,1.236
906.518,1.232
906.754,1.240
906.990,1.251
907.227,1.246
907.463,1.236
907.699,1.222
907.935,1.227
908.171,1.236
908.407,1.243
908.643,1.236
908.879,1.233
909.115,1.242
909.350,1.250
909.586,1.247
909.822,1.244
910.057,1.247
910.293,1.261
910.528,1.284
910.764,1.279
910.999,1.267
911.235,1.272
911.470,1.249
911.706,1.254
911.941,1.250
912.176,1.249
912.412,1.241
912.647,1.235
912.882,1.241
913.117,1.243
913.352,1.236
913.588,1.238
913.823,1.234
914.058,1.235
914.293,1.230
914.528,1.234
914.763,1.217
914.999,1.209
915.234,1.218
915.469,1.221
915.704,1.232
915.939,1.224
916.174,1.220
916.409,1.220
916.645,1.232
916.880,1.246
917.115,1.239
917.350,1.237
917.586,1.228
917.821,1.227
918.056,1.231
918.292,1.243
918.527,1.241
918.763,1.237
918.998,1.230
919.234,1.234
919.469,1.256
919.705,1.265
919.940,1.249
920.176,1.251
920.412,1.251
920.648,1.255
920.884,1.248
921.120,1.245
921.356,1.246
921.592,1.244
921.828,1.236
922.065,1.237
922.301,1.244
922.537,1.249
922.774,1.253
923.011,1.250
923.247,1.230
923.484,1.225
923.721,1.242
923.958,1.248
924.195,1.240
924.433,1.240
924.670,1.231
924.908,1.218
925.145,1.213
925.383,1.233
925.621,1.244
925.859,1.242
926.097,1.246
926.335,1.250
926.574,1.242
926.813,1.251
927.051,1.253
927.290,1.248
927.529,1.250
927.769,1.264
928.008,1.269
928.248,1.258
928.487,1.230
928.727,1.234
928.967,1.247
929.208,1.264
929.448,1.258
929.689,1.254
929.930,1.255
930.171,1.242
930.413,1.236
930.654,1.245
930.896,1.237
931.138,1.215
931.380,1.211
931.623,1.211
931.865,1.235
932.108,1.244
932.352,1.244
932.595,1.242
932.839,1.244
933.083,1.249
933.327,1.241
933.571,1.234
933.816,1.225
934.061,1.236
934.307,1.237
934.552,1.226
934.798,1.216
935.045,1.227
935.291,1.229
935.538,1.229
935.785,1.240
936.033,1.248
936.281,1.256
936.529,1.262
936.777,1.256
937.026,1.250
937.275,1.245
937.525,1.241
937.775,1.228
938.025,1.231
938.276,1.227
938.527,1.216
938.778,1.220
939.030,1.217
939.282,1.211
939.535,1.221
939.788,1.234
940.041,1.240
940.295,1.232
940.550,1.224
940.804,1.233
941.059,1.243
941.315,1.243
941.571,1.225
941.828,1.222
942.085,1.226
942.342,1.227
942.600,1.233
942.858,1.231
943.117,1.224
943.377,1.221
943.636,1.220
943.897,1.215
944.158,1.222
944.419,1.232
944.681,1.238
944.944,1.242
945.207,1.248
945.470,1.246
945.734,1.248
945.999,1.256
946.264,1.271
946.530,1.271
946.797,1.260
947.064,1.250
947.331,1.256
947.600,1.249
947.869,1.233
948.138,1.228
948.408,1.223
948.679,1.216
948.950,1.231
949.222,1.232
949.495,1.211
949.768,1.218
950.043,1.235
