Wavelength (nm),Intensity B10.3,,C:/Users/Brend/Desktop/LED Spectras v2/Blinds/-Interference/Spectrometer Data (Newer).sp,,,B10.3,
379.792,1.584,,2018-07-02 14:39:59,,Integration Time,100 ms,
380.000,1.568,,Analyze Light,,Number of Scans to Average,25,
380.209,1.551,,,,Smoothing,0,
380.418,1.573
380.627,1.579
380.837,1.580
381.048,1.593
381.259,1.591
381.471,1.582
381.683,1.586
381.896,1.596
382.110,1.591
382.324,1.589
382.538,1.613
382.753,1.633
382.969,1.627
383.185,1.612
383.402,1.603
383.619,1.610
383.837,1.629
384.055,1.638
384.274,1.652
384.493,1.655
384.712,1.648
384.932,1.654
385.153,1.654
385.374,1.648
385.596,1.654
385.818,1.654
386.040,1.669
386.263,1.676
386.487,1.676
386.710,1.666
386.935,1.664
387.159,1.659
387.385,1.664
387.610,1.675
387.836,1.664
388.063,1.669
388.289,1.678
388.517,1.687
388.744,1.685
388.972,1.668
389.201,1.680
389.430,1.687
389.659,1.692
389.889,1.694
390.119,1.702
390.349,1.704
390.580,1.713
390.811,1.715
391.042,1.699
391.274,1.697
391.507,1.713
391.739,1.715
391.972,1.709
392.205,1.722
392.439,1.730
392.673,1.736
392.907,1.737
393.142,1.744
393.377,1.753
393.612,1.763
393.848,1.765
394.084,1.772
394.320,1.772
394.557,1.776
394.794,1.786
395.031,1.781
395.269,1.786
395.507,1.795
395.745,1.795
395.983,1.777
396.222,1.784
396.461,1.800
396.700,1.814
396.940,1.830
397.180,1.826
397.420,1.814
397.660,1.811
397.901,1.812
398.142,1.807
398.383,1.807
398.625,1.793
398.866,1.793
399.108,1.818
399.351,1.838
399.593,1.856
399.836,1.835
400.079,1.826
400.322,1.830
400.566,1.825
400.809,1.818
401.053,1.823
401.298,1.833
401.542,1.832
401.787,1.842
402.031,1.845
402.277,1.845
402.522,1.854
402.767,1.856
403.013,1.854
403.259,1.842
403.505,1.852
403.752,1.852
403.998,1.851
404.245,1.875
404.492,1.893
404.739,1.891
404.986,1.900
405.234,1.910
405.482,1.908
405.730,1.898
405.978,1.898
406.226,1.903
406.475,1.889
406.723,1.873
406.972,1.882
407.221,1.894
407.470,1.896
407.720,1.905
407.969,1.915
408.219,1.893
408.469,1.907
408.719,1.924
408.969,1.920
409.219,1.933
409.470,1.934
409.720,1.933
409.971,1.947
410.222,1.950
410.473,1.954
410.724,1.945
410.976,1.943
411.227,1.948
411.479,1.962
411.731,1.964
411.983,1.966
412.235,1.961
412.487,1.955
412.740,1.959
412.992,1.964
413.245,1.968
413.497,1.966
413.750,1.964
414.003,1.961
414.257,1.964
414.510,1.975
414.763,1.978
415.017,1.988
415.270,1.980
415.524,1.966
415.778,1.962
416.032,1.969
416.286,1.988
416.540,1.997
416.794,1.987
417.049,1.983
417.303,1.978
417.558,1.983
417.812,1.999
418.067,2.004
418.322,1.997
418.577,1.997
418.832,1.982
419.088,1.973
419.343,1.973
419.598,1.985
419.854,1.978
420.109,1.992
420.365,1.995
420.621,1.999
420.876,2.006
421.132,2.004
421.388,1.999
421.645,1.992
421.901,1.997
422.157,2.002
422.413,2.009
422.670,2.013
422.926,2.006
423.183,2.011
423.439,2.009
423.696,2.037
423.953,2.046
424.210,2.069
424.467,2.090
424.724,2.086
424.981,2.081
425.238,2.069
425.495,2.084
425.753,2.121
426.010,2.140
426.267,2.140
426.525,2.147
426.782,2.168
427.040,2.186
427.298,2.205
427.555,2.226
427.813,2.257
428.071,2.273
428.329,2.299
428.587,2.318
428.845,2.348
429.103,2.379
429.361,2.416
429.619,2.447
429.878,2.484
430.136,2.522
430.394,2.582
430.653,2.625
430.911,2.716
431.170,2.787
431.428,2.840
431.687,2.887
431.946,2.964
432.204,3.016
432.463,3.089
432.722,3.183
432.981,3.271
433.240,3.361
433.499,3.485
433.758,3.583
434.017,3.703
434.276,3.794
434.535,3.914
434.794,4.036
435.053,4.186
435.312,4.308
435.572,4.451
435.831,4.605
436.090,4.806
436.350,4.975
436.609,5.163
436.869,5.339
437.128,5.517
437.388,5.695
437.647,5.882
437.907,6.089
438.166,6.337
438.426,6.555
438.686,6.796
438.946,7.029
439.205,7.303
439.465,7.558
439.725,7.895
439.985,8.196
440.245,8.503
440.505,8.779
440.765,9.107
441.025,9.438
441.285,9.770
441.545,10.113
441.805,10.469
442.065,10.865
442.325,11.301
442.585,11.676
442.846,12.118
443.106,12.585
443.366,13.100
443.626,13.595
443.887,14.103
444.147,14.643
444.407,15.226
444.668,15.805
444.928,16.428
445.189,17.117
445.449,17.814
445.710,18.495
445.970,19.278
446.231,20.047
446.491,20.890
446.752,21.743
447.012,22.646
447.273,23.581
447.534,24.546
447.794,25.521
448.055,26.522
448.316,27.595
448.577,28.751
448.837,29.876
449.098,31.041
449.359,32.224
449.620,33.417
449.881,34.584
450.142,35.777
450.403,36.965
450.664,38.203
450.924,39.503
451.185,40.808
451.446,42.057
451.707,43.271
451.969,44.441
452.230,45.634
452.491,46.806
452.752,47.886
453.013,48.912
453.274,49.857
453.535,50.757
453.796,51.586
454.058,52.271
454.319,52.883
454.580,53.464
454.841,53.902
455.103,54.260
455.364,54.464
455.625,54.556
455.887,54.594
456.148,54.565
456.409,54.394
456.671,54.150
456.932,53.733
457.194,53.189
457.455,52.552
457.716,51.884
457.978,51.111
458.239,50.321
458.501,49.444
458.763,48.537
459.024,47.520
459.286,46.463
459.547,45.437
459.809,44.335
460.071,43.178
460.332,42.027
460.594,40.933
460.856,39.843
461.117,38.742
461.379,37.692
461.641,36.630
461.903,35.590
462.164,34.615
462.426,33.668
462.688,32.749
462.950,31.896
463.212,31.045
463.474,30.284
463.736,29.512
463.998,28.788
464.260,28.114
464.522,27.485
464.784,26.920
465.046,26.354
465.308,25.857
465.570,25.400
465.832,24.931
466.094,24.478
466.356,24.096
466.618,23.745
466.880,23.335
467.142,22.955
467.405,22.595
467.667,22.238
467.929,21.898
468.191,21.559
468.454,21.240
468.716,20.907
468.978,20.586
469.241,20.208
469.503,19.826
469.765,19.470
470.028,19.142
470.290,18.816
470.552,18.428
470.815,18.048
471.077,17.691
471.340,17.338
471.602,16.982
471.865,16.632
472.128,16.248
472.390,15.882
472.653,15.538
472.915,15.170
473.178,14.821
473.441,14.467
473.703,14.111
473.966,13.694
474.229,13.326
474.492,12.950
474.755,12.568
475.017,12.175
475.280,11.877
475.543,11.556
475.806,11.273
476.069,10.931
476.332,10.586
476.595,10.274
476.858,9.983
477.121,9.667
477.384,9.358
477.647,9.084
477.910,8.859
478.173,8.619
478.436,8.400
478.699,8.168
478.962,7.949
479.226,7.722
479.489,7.553
479.752,7.356
480.015,7.171
480.279,6.977
480.542,6.799
480.805,6.607
481.069,6.457
481.332,6.283
481.595,6.136
481.859,5.979
482.122,5.903
482.386,5.760
482.649,5.597
482.913,5.481
483.177,5.374
483.440,5.231
483.704,5.114
483.967,4.990
484.231,4.908
484.495,4.809
484.759,4.708
485.022,4.567
485.286,4.464
485.550,4.352
485.814,4.260
486.078,4.129
486.342,4.021
486.606,3.916
486.869,3.858
487.133,3.769
487.397,3.708
487.662,3.625
487.926,3.562
488.190,3.459
488.454,3.382
488.718,3.288
488.982,3.209
489.246,3.117
489.511,3.059
489.775,2.981
490.039,2.918
490.304,2.854
490.568,2.784
490.832,2.709
491.097,2.672
491.361,2.620
491.626,2.561
491.890,2.515
492.155,2.473
492.419,2.430
492.684,2.402
492.949,2.353
493.213,2.304
493.478,2.269
493.743,2.248
494.008,2.193
494.272,2.140
494.537,2.102
494.802,2.086
495.067,2.051
495.332,2.029
495.597,2.018
495.862,2.004
496.127,1.968
496.392,1.945
496.657,1.926
496.922,1.896
497.187,1.872
497.452,1.856
497.718,1.847
497.983,1.859
498.248,1.844
498.513,1.823
498.779,1.805
499.044,1.819
499.310,1.814
499.575,1.772
499.841,1.758
500.106,1.760
500.372,1.734
500.637,1.713
500.903,1.725
501.168,1.725
501.434,1.702
501.700,1.678
501.966,1.675
502.231,1.675
502.497,1.661
502.763,1.648
503.029,1.629
503.295,1.619
503.561,1.606
503.827,1.601
504.093,1.608
504.359,1.610
504.625,1.601
504.891,1.593
505.157,1.586
505.423,1.575
505.690,1.551
505.956,1.525
506.222,1.530
506.489,1.545
506.755,1.554
507.021,1.554
507.288,1.547
507.554,1.552
507.821,1.531
508.087,1.521
508.354,1.512
508.621,1.530
508.887,1.519
509.154,1.505
509.421,1.512
509.687,1.505
509.954,1.488
510.221,1.477
510.488,1.463
510.755,1.483
511.022,1.488
511.289,1.479
511.556,1.450
511.823,1.448
512.090,1.458
512.357,1.476
512.624,1.465
512.891,1.453
513.159,1.446
513.426,1.436
513.693,1.443
513.960,1.432
514.228,1.423
514.495,1.423
514.763,1.427
515.030,1.416
515.298,1.411
515.565,1.409
515.833,1.416
516.100,1.415
516.368,1.406
516.636,1.409
516.904,1.397
517.171,1.394
517.439,1.387
517.707,1.397
517.975,1.397
518.243,1.409
518.511,1.411
518.779,1.394
519.047,1.387
519.315,1.402
519.583,1.390
519.851,1.373
520.119,1.373
520.387,1.368
520.656,1.366
520.924,1.362
521.192,1.371
521.461,1.374
521.729,1.376
521.997,1.381
522.266,1.374
522.534,1.378
522.803,1.383
523.071,1.388
523.340,1.380
523.609,1.368
523.877,1.362
524.146,1.362
524.415,1.359
524.684,1.368
524.952,1.374
525.221,1.357
525.490,1.361
525.759,1.381
526.028,1.371
526.297,1.368
526.566,1.361
526.835,1.361
527.104,1.355
527.373,1.364
527.642,1.368
527.912,1.361
528.181,1.348
528.450,1.354
528.719,1.354
528.989,1.361
529.258,1.368
529.528,1.362
529.797,1.354
530.067,1.354
530.336,1.361
530.606,1.355
530.875,1.340
531.145,1.329
531.414,1.338
531.684,1.352
531.954,1.354
532.224,1.338
532.493,1.320
532.763,1.310
533.033,1.322
533.303,1.336
533.573,1.347
533.843,1.350
534.113,1.338
534.383,1.340
534.653,1.331
534.923,1.334
535.193,1.340
535.463,1.341
535.733,1.355
536.004,1.359
536.274,1.341
536.544,1.334
536.814,1.326
537.085,1.322
537.355,1.327
537.626,1.343
537.896,1.343
538.166,1.331
538.437,1.326
538.707,1.310
538.978,1.310
539.249,1.322
539.519,1.329
539.790,1.320
540.061,1.317
540.331,1.324
540.602,1.334
540.873,1.343
541.144,1.345
541.414,1.338
541.685,1.338
541.956,1.334
542.227,1.331
542.498,1.326
542.769,1.322
543.040,1.319
543.311,1.320
543.582,1.322
543.853,1.331
544.124,1.326
544.396,1.338
544.667,1.336
544.938,1.338
545.209,1.326
545.480,1.296
545.752,1.303
546.023,1.313
546.294,1.322
546.566,1.312
546.837,1.306
547.109,1.299
547.380,1.303
547.652,1.308
547.923,1.299
548.195,1.301
548.466,1.319
548.738,1.334
549.009,1.338
549.281,1.322
549.553,1.313
549.824,1.301
550.096,1.294
550.368,1.305
550.640,1.305
550.911,1.310
551.183,1.324
551.455,1.343
551.727,1.357
551.999,1.350
552.271,1.329
552.543,1.319
552.815,1.319
553.087,1.313
553.359,1.327
553.631,1.333
553.903,1.320
554.175,1.326
554.447,1.333
554.719,1.331
554.991,1.329
555.263,1.341
555.535,1.331
555.808,1.320
556.080,1.326
556.352,1.319
556.624,1.315
556.897,1.312
557.169,1.308
557.441,1.319
557.714,1.315
557.986,1.310
558.258,1.310
558.531,1.301
558.803,1.306
559.076,1.306
559.348,1.308
559.621,1.301
559.893,1.301
560.166,1.313
560.438,1.303
560.711,1.296
560.983,1.298
561.256,1.294
561.528,1.298
561.801,1.315
562.074,1.319
562.346,1.322
562.619,1.333
562.892,1.327
563.164,1.312
563.437,1.306
563.710,1.319
563.983,1.313
564.255,1.299
564.528,1.293
564.801,1.315
565.074,1.326
565.346,1.317
565.619,1.305
565.892,1.313
566.165,1.327
566.438,1.313
566.711,1.287
566.984,1.289
567.257,1.298
567.529,1.308
567.802,1.315
568.075,1.327
568.348,1.324
568.621,1.320
568.894,1.333
569.167,1.324
569.440,1.319
569.713,1.315
569.986,1.301
570.259,1.308
570.532,1.306
570.805,1.315
571.078,1.317
571.351,1.315
571.625,1.312
571.898,1.319
572.171,1.308
572.444,1.298
572.717,1.306
572.990,1.329
573.263,1.331
573.536,1.306
573.809,1.289
574.083,1.284
574.356,1.284
574.629,1.293
574.902,1.312
575.175,1.308
575.448,1.301
575.721,1.291
575.995,1.294
576.268,1.289
576.541,1.291
576.814,1.308
577.087,1.305
577.361,1.301
577.634,1.301
577.907,1.308
578.180,1.289
578.453,1.279
578.727,1.289
579.000,1.293
579.273,1.298
579.546,1.301
579.820,1.312
580.093,1.313
580.366,1.298
580.639,1.287
580.913,1.294
581.186,1.305
581.459,1.303
581.732,1.296
582.005,1.286
582.279,1.282
582.552,1.286
582.825,1.282
583.098,1.277
583.372,1.291
583.645,1.298
583.918,1.299
584.191,1.296
584.464,1.299
584.738,1.289
585.011,1.293
585.284,1.293
585.557,1.279
585.831,1.272
586.104,1.294
586.377,1.313
586.650,1.333
586.923,1.324
587.196,1.313
587.470,1.319
587.743,1.312
588.016,1.313
588.289,1.315
588.562,1.322
588.835,1.319
589.109,1.305
589.382,1.296
589.655,1.305
589.928,1.299
590.201,1.286
590.474,1.289
590.747,1.296
591.020,1.296
591.293,1.305
591.567,1.310
591.840,1.301
592.113,1.296
592.386,1.298
592.659,1.286
592.932,1.272
593.205,1.287
593.478,1.294
593.751,1.291
594.024,1.293
594.297,1.286
594.570,1.280
594.843,1.286
595.116,1.293
595.389,1.291
595.662,1.284
595.934,1.286
596.207,1.294
596.480,1.319
596.753,1.327
597.026,1.329
597.299,1.319
597.572,1.313
597.844,1.312
598.117,1.299
598.390,1.289
598.663,1.293
598.936,1.293
599.208,1.298
599.481,1.308
599.754,1.312
600.026,1.305
600.299,1.277
600.572,1.282
600.844,1.291
601.117,1.280
601.390,1.277
601.662,1.286
601.935,1.282
602.207,1.280
602.480,1.286
602.752,1.296
603.025,1.291
603.297,1.279
603.570,1.280
603.842,1.296
604.115,1.315
604.387,1.303
604.660,1.301
604.932,1.294
605.204,1.305
605.477,1.317
605.749,1.324
606.021,1.331
606.294,1.333
606.566,1.319
606.838,1.296
607.110,1.303
607.383,1.303
607.655,1.294
607.927,1.296
608.199,1.299
608.471,1.301
608.743,1.303
609.015,1.291
609.287,1.280
609.559,1.286
609.831,1.286
610.103,1.287
610.375,1.280
610.647,1.280
610.919,1.280
611.191,1.279
611.463,1.289
611.735,1.289
612.007,1.282
612.278,1.277
612.550,1.287
612.822,1.296
613.094,1.303
613.365,1.299
613.637,1.301
613.909,1.322
614.180,1.313
614.452,1.303
614.723,1.299
614.995,1.284
615.266,1.282
615.538,1.294
615.809,1.310
616.081,1.299
616.352,1.284
616.623,1.275
616.895,1.279
617.166,1.287
617.437,1.277
617.709,1.282
617.980,1.296
618.251,1.299
618.522,1.301
618.793,1.303
619.065,1.320
619.336,1.320
619.607,1.293
619.878,1.299
620.149,1.315
620.420,1.320
620.691,1.308
620.962,1.308
621.232,1.320
621.503,1.324
621.774,1.308
622.045,1.298
622.316,1.291
622.586,1.296
622.857,1.308
623.128,1.319
623.398,1.317
623.669,1.306
623.940,1.296
624.210,1.275
624.481,1.277
624.751,1.293
625.021,1.286
625.292,1.282
625.562,1.277
625.833,1.277
626.103,1.273
626.373,1.277
626.643,1.275
626.914,1.279
627.184,1.289
627.454,1.286
627.724,1.280
627.994,1.289
628.264,1.289
628.534,1.273
628.804,1.263
629.074,1.275
629.344,1.287
629.614,1.293
629.884,1.289
630.154,1.287
630.424,1.268
630.693,1.265
630.963,1.272
631.233,1.256
631.502,1.245
631.772,1.268
632.041,1.279
632.311,1.282
632.581,1.286
632.850,1.286
633.119,1.275
633.389,1.263
633.658,1.261
633.928,1.258
634.197,1.268
634.466,1.287
634.735,1.298
635.004,1.298
635.274,1.287
635.543,1.296
635.812,1.298
636.081,1.296
636.350,1.289
636.619,1.287
636.888,1.287
637.157,1.293
637.426,1.287
637.694,1.296
637.963,1.291
638.232,1.279
638.501,1.287
638.769,1.277
639.038,1.293
639.307,1.301
639.575,1.296
639.844,1.293
640.112,1.289
640.381,1.289
640.649,1.279
640.917,1.280
641.186,1.286
641.454,1.282
641.722,1.277
641.991,1.277
642.259,1.280
642.527,1.279
642.795,1.275
643.063,1.273
643.331,1.258
643.599,1.266
643.867,1.280
644.135,1.279
644.403,1.289
644.671,1.298
644.939,1.289
645.206,1.308
645.474,1.315
645.742,1.308
646.009,1.287
646.277,1.280
646.545,1.284
646.812,1.286
647.080,1.306
647.347,1.310
647.615,1.298
647.882,1.289
648.149,1.275
648.417,1.266
648.684,1.265
648.951,1.277
649.219,1.289
649.486,1.298
649.753,1.296
650.020,1.293
650.287,1.284
650.554,1.279
650.821,1.268
651.088,1.263
651.355,1.266
651.622,1.291
651.889,1.293
652.155,1.280
652.422,1.273
652.689,1.282
652.956,1.289
653.222,1.301
653.489,1.308
653.755,1.324
654.022,1.305
654.288,1.280
654.555,1.272
654.821,1.275
655.088,1.279
655.354,1.279
655.620,1.289
655.887,1.299
656.153,1.308
656.419,1.310
656.685,1.310
656.951,1.308
657.217,1.308
657.483,1.308
657.749,1.296
658.015,1.298
658.281,1.299
658.547,1.284
658.813,1.256
659.079,1.261
659.345,1.263
659.610,1.263
659.876,1.270
660.142,1.279
660.407,1.277
660.673,1.266
660.939,1.270
661.204,1.286
661.470,1.273
661.735,1.272
662.000,1.268
662.266,1.275
662.531,1.282
662.796,1.275
663.062,1.277
663.327,1.265
663.592,1.252
663.857,1.261
664.122,1.270
664.388,1.272
664.653,1.272
664.918,1.284
665.183,1.279
665.448,1.272
665.712,1.280
665.977,1.282
666.242,1.293
666.507,1.286
666.772,1.268
667.037,1.272
667.301,1.277
667.566,1.275
667.831,1.277
668.095,1.282
668.360,1.286
668.624,1.270
668.889,1.261
669.153,1.280
669.418,1.279
669.682,1.277
669.946,1.286
670.211,1.293
670.475,1.289
670.739,1.287
671.004,1.306
671.268,1.320
671.532,1.350
671.796,1.348
672.060,1.301
672.324,1.313
672.588,1.326
672.852,1.331
673.116,1.336
673.380,1.388
673.644,1.376
673.908,1.299
674.172,1.294
674.436,1.294
674.700,1.293
674.963,1.296
675.227,1.310
675.491,1.306
675.754,1.294
676.018,1.287
676.282,1.280
676.545,1.284
676.809,1.280
677.072,1.272
677.336,1.277
677.599,1.287
677.863,1.289
678.126,1.273
678.389,1.275
678.653,1.291
678.916,1.296
679.179,1.289
679.442,1.275
679.706,1.280
679.969,1.287
680.232,1.284
680.495,1.289
680.758,1.291
681.021,1.289
681.284,1.275
681.547,1.270
681.810,1.275
682.073,1.291
682.336,1.301
682.599,1.299
682.862,1.289
683.125,1.287
683.388,1.294
683.651,1.293
683.913,1.286
684.176,1.280
684.439,1.275
684.702,1.266
684.964,1.252
685.227,1.263
685.490,1.272
685.752,1.286
686.015,1.289
686.277,1.275
686.540,1.280
686.802,1.279
687.065,1.268
687.327,1.277
687.590,1.293
687.852,1.284
688.115,1.279
688.377,1.273
688.639,1.268
688.902,1.273
689.164,1.275
689.426,1.287
689.689,1.293
689.951,1.282
690.213,1.268
690.475,1.273
690.737,1.277
691.000,1.273
691.262,1.277
691.524,1.275
691.786,1.282
692.048,1.298
692.310,1.306
692.572,1.284
692.834,1.254
693.096,1.259
693.358,1.277
693.620,1.277
693.882,1.286
694.144,1.293
694.406,1.291
694.668,1.277
694.930,1.275
695.192,1.272
695.453,1.272
695.715,1.286
695.977,1.280
696.239,1.268
696.501,1.261
696.762,1.268
697.024,1.273
697.286,1.266
697.548,1.261
697.809,1.270
698.071,1.268
698.333,1.268
698.594,1.275
698.856,1.275
699.118,1.280
699.379,1.282
699.641,1.286
699.902,1.298
700.164,1.303
700.426,1.294
700.687,1.289
700.949,1.286
701.210,1.277
701.472,1.275
701.733,1.265
701.995,1.251
702.256,1.259
702.518,1.266
702.779,1.261
703.041,1.266
703.302,1.275
703.563,1.277
703.825,1.270
704.086,1.279
704.348,1.275
704.609,1.270
704.871,1.279
705.132,1.289
705.393,1.294
705.655,1.277
705.916,1.287
706.177,1.291
706.439,1.287
706.700,1.279
706.961,1.275
707.223,1.272
707.484,1.265
707.745,1.244
708.007,1.247
708.268,1.247
708.529,1.231
708.790,1.230
709.052,1.228
709.313,1.218
709.574,1.230
709.835,1.240
710.097,1.235
710.358,1.221
710.619,1.200
710.881,1.195
711.142,1.191
711.403,1.188
711.664,1.190
711.926,1.193
712.187,1.191
712.448,1.209
712.709,1.218
712.970,1.218
713.232,1.223
713.493,1.231
713.754,1.235
714.015,1.226
714.277,1.228
714.538,1.237
714.799,1.242
715.060,1.252
715.322,1.245
715.583,1.240
715.844,1.233
716.105,1.230
716.367,1.223
716.628,1.226
716.889,1.237
717.150,1.228
717.411,1.214
717.673,1.195
717.934,1.207
718.195,1.216
718.457,1.214
718.718,1.204
718.979,1.193
719.240,1.207
719.502,1.212
719.763,1.221
720.024,1.228
720.286,1.224
720.547,1.224
720.808,1.211
721.069,1.211
721.331,1.214
721.592,1.228
721.853,1.235
722.115,1.219
722.376,1.212
722.638,1.216
722.899,1.219
723.160,1.211
723.422,1.207
723.683,1.202
723.944,1.207
724.206,1.219
724.467,1.209
724.729,1.218
724.990,1.219
725.252,1.226
725.513,1.224
725.775,1.212
726.036,1.205
726.298,1.212
726.559,1.221
726.821,1.228
727.082,1.238
727.344,1.237
727.605,1.221
727.867,1.218
728.128,1.214
728.390,1.223
728.652,1.219
728.913,1.226
729.175,1.230
729.436,1.223
729.698,1.216
729.960,1.216
730.221,1.211
730.483,1.204
730.745,1.195
731.007,1.209
731.268,1.209
731.530,1.212
731.792,1.218
732.054,1.218
732.315,1.221
732.577,1.235
732.839,1.226
733.101,1.209
733.363,1.202
733.625,1.204
733.887,1.212
734.149,1.223
734.411,1.221
734.673,1.221
734.935,1.221
735.197,1.214
735.459,1.211
735.721,1.224
735.983,1.221
736.245,1.211
736.507,1.200
736.769,1.219
737.031,1.228
737.293,1.226
737.555,1.212
737.818,1.198
738.080,1.193
738.342,1.193
738.604,1.195
738.867,1.197
739.129,1.198
739.391,1.198
739.654,1.193
739.916,1.190
740.178,1.193
740.441,1.200
740.703,1.212
740.966,1.204
741.228,1.202
741.491,1.216
741.753,1.214
742.016,1.223
742.278,1.219
742.541,1.219
742.804,1.221
743.066,1.211
743.329,1.226
743.592,1.230
743.854,1.223
744.117,1.228
744.380,1.237
744.643,1.233
744.905,1.209
745.168,1.214
745.431,1.218
745.694,1.219
745.957,1.223
746.220,1.212
746.483,1.195
746.746,1.197
747.009,1.204
747.272,1.228
747.535,1.244
747.798,1.238
748.061,1.231
748.324,1.219
748.588,1.197
748.851,1.205
749.114,1.219
749.377,1.218
749.641,1.219
749.904,1.218
750.167,1.219
750.431,1.224
750.694,1.219
750.958,1.221
751.221,1.223
751.485,1.209
751.748,1.202
752.012,1.207
752.275,1.228
752.539,1.240
752.803,1.218
753.066,1.204
753.330,1.202
753.594,1.198
753.857,1.193
754.121,1.195
754.385,1.207
754.649,1.211
754.913,1.204
755.177,1.216
755.441,1.224
755.705,1.214
755.969,1.200
756.233,1.207
756.497,1.223
756.761,1.224
757.025,1.219
757.289,1.207
757.553,1.212
757.818,1.221
758.082,1.228
758.346,1.233
758.610,1.219
758.875,1.209
759.139,1.209
759.404,1.211
759.668,1.198
759.932,1.195
760.197,1.211
760.462,1.219
760.726,1.219
760.991,1.216
761.255,1.218
761.520,1.219
761.785,1.218
762.049,1.209
762.314,1.193
762.579,1.190
762.844,1.202
763.109,1.218
763.374,1.209
763.639,1.212
763.903,1.221
764.168,1.212
764.433,1.214
764.699,1.216
764.964,1.221
765.229,1.221
765.494,1.209
765.759,1.212
766.024,1.212
766.290,1.211
766.555,1.214
766.820,1.216
767.086,1.212
767.351,1.224
767.616,1.226
767.882,1.216
768.147,1.211
768.413,1.214
768.678,1.197
768.944,1.193
769.209,1.195
769.475,1.211
769.741,1.223
770.006,1.235
770.272,1.230
770.538,1.230
770.804,1.228
771.070,1.226
771.335,1.228
771.601,1.245
771.867,1.249
772.133,1.237
772.399,1.226
772.665,1.221
772.931,1.205
773.197,1.218
773.464,1.221
773.730,1.233
773.996,1.252
774.262,1.247
774.528,1.238
774.795,1.231
775.061,1.242
775.327,1.256
775.594,1.245
775.860,1.228
776.126,1.212
776.393,1.204
776.659,1.204
776.926,1.214
777.193,1.216
777.459,1.221
777.726,1.214
777.992,1.214
778.259,1.212
778.526,1.207
778.793,1.218
779.059,1.219
779.326,1.224
779.593,1.235
779.860,1.235
780.127,1.231
780.394,1.221
780.661,1.226
780.928,1.216
781.195,1.207
781.462,1.202
781.729,1.198
781.996,1.197
782.263,1.191
782.530,1.204
782.797,1.221
783.064,1.219
783.332,1.207
783.599,1.197
783.866,1.200
784.134,1.211
784.401,1.207
784.668,1.207
784.936,1.212
785.203,1.204
785.470,1.188
785.738,1.191
786.005,1.190
786.273,1.181
786.541,1.179
786.808,1.184
787.076,1.190
787.343,1.191
787.611,1.193
787.879,1.200
788.146,1.195
788.414,1.197
788.682,1.214
788.950,1.216
789.217,1.214
789.485,1.223
789.753,1.230
790.021,1.219
790.289,1.209
790.557,1.204
790.825,1.198
791.093,1.204
791.361,1.223
791.629,1.230
791.897,1.226
792.165,1.218
792.433,1.202
792.701,1.202
792.969,1.191
793.237,1.186
793.505,1.198
793.773,1.211
794.042,1.207
794.310,1.197
794.578,1.202
794.846,1.195
795.115,1.193
795.383,1.202
795.651,1.204
795.920,1.209
796.188,1.197
796.456,1.195
796.725,1.211
796.993,1.214
797.261,1.218
797.530,1.228
797.798,1.223
798.067,1.219
798.335,1.233
798.604,1.235
798.872,1.224
799.141,1.200
799.409,1.204
799.678,1.197
799.946,1.205
800.215,1.218
800.483,1.212
800.752,1.202
801.020,1.204
801.289,1.200
801.558,1.198
801.826,1.212
802.095,1.223
802.363,1.216
802.632,1.230
802.901,1.226
803.169,1.224
803.438,1.216
803.707,1.195
803.976,1.184
804.244,1.198
804.513,1.204
804.782,1.197
805.050,1.188
805.319,1.200
805.588,1.211
805.857,1.221
806.125,1.223
806.394,1.214
806.663,1.211
806.931,1.204
807.200,1.204
807.469,1.214
807.738,1.214
808.006,1.205
808.275,1.204
808.544,1.218
808.813,1.235
809.082,1.237
809.350,1.219
809.619,1.214
809.888,1.218
810.157,1.211
810.425,1.205
810.694,1.205
810.963,1.209
811.232,1.214
811.500,1.207
811.769,1.198
812.038,1.198
812.306,1.214
812.575,1.214
812.844,1.216
813.113,1.214
813.381,1.205
813.650,1.193
813.919,1.202
814.187,1.212
814.456,1.204
814.725,1.212
814.993,1.218
815.262,1.207
815.531,1.218
815.799,1.224
816.068,1.221
816.336,1.209
816.605,1.205
816.873,1.218
817.142,1.224
817.411,1.224
817.679,1.226
817.948,1.223
818.216,1.235
818.485,1.249
818.753,1.284
819.021,1.287
819.290,1.226
819.558,1.204
819.827,1.223
820.095,1.221
820.363,1.223
820.632,1.230
820.900,1.212
821.168,1.211
821.437,1.218
821.705,1.211
821.973,1.209
822.241,1.218
822.509,1.224
822.777,1.230
823.046,1.219
823.314,1.218
823.582,1.223
823.850,1.228
824.118,1.231
824.386,1.230
824.654,1.226
824.922,1.198
825.190,1.186
825.457,1.188
825.725,1.195
825.993,1.200
826.261,1.186
826.529,1.186
826.796,1.204
827.064,1.207
827.332,1.200
827.599,1.211
827.867,1.228
828.134,1.228
828.402,1.212
828.669,1.202
828.937,1.205
829.204,1.209
829.471,1.214
829.739,1.226
830.006,1.223
830.273,1.212
830.540,1.204
830.807,1.190
831.075,1.186
831.342,1.209
831.609,1.209
831.876,1.209
832.142,1.223
832.409,1.233
832.676,1.231
832.943,1.223
833.210,1.209
833.476,1.207
833.743,1.214
834.010,1.216
834.276,1.218
834.543,1.207
834.809,1.207
835.076,1.211
835.342,1.207
835.608,1.212
835.874,1.228
836.141,1.223
836.407,1.212
836.673,1.218
836.939,1.218
837.205,1.211
837.471,1.211
837.737,1.207
838.002,1.219
838.268,1.216
838.534,1.212
838.799,1.218
839.065,1.223
839.330,1.233
839.596,1.230
839.861,1.223
840.127,1.230
840.392,1.228
840.657,1.219
840.922,1.218
841.187,1.228
841.452,1.228
841.717,1.228
841.982,1.228
842.247,1.212
842.511,1.204
842.776,1.212
843.041,1.226
843.305,1.211
843.570,1.204
843.834,1.202
844.098,1.193
844.362,1.198
844.627,1.195
844.891,1.190
845.155,1.207
845.419,1.211
845.682,1.209
845.946,1.214
846.210,1.216
846.474,1.221
846.737,1.216
847.001,1.223
847.264,1.216
847.527,1.207
847.790,1.212
848.054,1.214
848.317,1.211
848.580,1.211
848.843,1.211
849.105,1.209
849.368,1.226
849.631,1.231
849.893,1.216
850.156,1.223
850.418,1.242
850.680,1.226
850.943,1.216
851.205,1.228
851.467,1.226
851.729,1.209
851.991,1.209
852.252,1.216
852.514,1.216
852.776,1.228
853.037,1.228
853.298,1.233
853.560,1.224
853.821,1.202
854.082,1.188
854.343,1.190
854.604,1.212
854.865,1.240
855.126,1.247
855.386,1.252
855.647,1.254
855.907,1.245
856.168,1.224
856.428,1.212
856.688,1.209
856.948,1.211
857.208,1.204
857.468,1.205
857.727,1.207
857.987,1.212
858.247,1.216
858.506,1.235
858.765,1.242
859.024,1.214
859.284,1.204
859.543,1.205
859.801,1.200
860.060,1.198
860.319,1.211
860.577,1.223
860.836,1.237
861.094,1.245
861.352,1.242
861.611,1.231
861.869,1.212
862.127,1.202
862.384,1.205
862.642,1.219
862.900,1.224
863.157,1.244
863.414,1.242
863.672,1.216
863.929,1.204
864.186,1.193
864.443,1.198
864.699,1.211
864.956,1.214
865.212,1.204
865.469,1.200
865.725,1.219
865.981,1.221
866.237,1.224
866.493,1.224
866.749,1.219
867.005,1.204
867.260,1.205
867.516,1.202
867.771,1.198
868.026,1.198
868.282,1.207
868.536,1.219
868.791,1.211
869.046,1.193
869.301,1.188
869.555,1.186
869.809,1.195
870.064,1.214
870.318,1.216
870.572,1.230
870.826,1.238
871.079,1.207
871.333,1.204
871.586,1.212
871.840,1.200
872.093,1.198
872.346,1.202
872.599,1.202
872.852,1.223
873.105,1.242
873.357,1.240
873.610,1.230
873.862,1.223
874.114,1.224
874.366,1.224
874.618,1.224
874.870,1.214
875.121,1.191
875.373,1.193
875.624,1.207
875.876,1.212
876.127,1.212
876.378,1.209
876.629,1.211
876.879,1.209
877.130,1.218
877.381,1.207
877.631,1.198
877.881,1.193
878.131,1.198
878.381,1.209
878.631,1.228
878.881,1.240
879.130,1.226
879.380,1.221
879.629,1.219
879.878,1.218
880.127,1.209
880.376,1.211
880.625,1.218
880.873,1.224
881.122,1.228
881.370,1.223
881.618,1.216
881.866,1.212
882.114,1.207
882.362,1.212
882.610,1.223
882.857,1.226
883.105,1.230
883.352,1.219
883.599,1.197
883.846,1.198
884.093,1.188
884.340,1.188
884.586,1.218
884.833,1.228
885.079,1.221
885.325,1.211
885.571,1.202
885.817,1.197
886.063,1.204
886.309,1.216
886.554,1.216
886.800,1.228
887.045,1.237
887.290,1.230
887.535,1.219
887.780,1.211
888.025,1.223
888.270,1.240
888.514,1.249
888.758,1.249
889.003,1.230
889.247,1.223
889.491,1.214
889.735,1.237
889.978,1.240
890.222,1.237
890.465,1.228
890.709,1.221
890.952,1.212
891.195,1.209
891.438,1.211
891.681,1.204
891.923,1.198
892.166,1.218
892.408,1.230
892.651,1.221
892.893,1.214
893.135,1.207
893.377,1.200
893.619,1.207
893.861,1.216
894.102,1.214
894.344,1.228
894.585,1.244
894.826,1.252
895.067,1.252
895.308,1.224
895.549,1.209
895.790,1.202
896.031,1.191
896.271,1.186
896.512,1.209
896.752,1.221
896.992,1.219
897.232,1.211
897.472,1.205
897.712,1.205
897.952,1.237
898.191,1.251
898.431,1.238
898.670,1.231
898.910,1.247
899.149,1.245
899.388,1.258
899.627,1.254
899.866,1.224
900.105,1.216
900.343,1.207
900.582,1.214
900.820,1.230
901.059,1.240
901.297,1.247
901.535,1.242
901.773,1.207
902.011,1.193
902.249,1.200
902.487,1.191
902.725,1.200
902.963,1.212
903.200,1.211
903.438,1.209
903.675,1.216
903.912,1.221
904.150,1.224
904.387,1.230
904.624,1.218
904.861,1.198
905.098,1.204
905.334,1.204
905.571,1.202
905.808,1.197
906.045,1.209
906.281,1.237
906.518,1.238
906.754,1.224
906.990,1.237
907.227,1.244
907.463,1.228
907.699,1.214
907.935,1.211
908.171,1.219
908.407,1.219
908.643,1.211
908.879,1.209
909.115,1.216
909.350,1.233
909.586,1.223
909.822,1.221
910.057,1.226
910.293,1.251
910.528,1.265
910.764,1.256
910.999,1.247
911.235,1.256
911.470,1.244
911.706,1.245
911.941,1.238
912.176,1.238
912.412,1.228
912.647,1.221
912.882,1.221
913.117,1.231
913.352,1.231
913.588,1.219
913.823,1.212
914.058,1.216
914.293,1.219
914.528,1.214
914.763,1.204
914.999,1.197
915.234,1.198
915.469,1.204
915.704,1.207
915.939,1.202
916.174,1.202
916.409,1.211
916.645,1.224
916.880,1.245
917.115,1.233
917.350,1.212
917.586,1.209
917.821,1.219
918.056,1.233
918.292,1.242
918.527,1.231
918.763,1.221
918.998,1.212
919.234,1.209
919.469,1.233
919.705,1.235
919.940,1.224
920.176,1.230
920.412,1.224
920.648,1.224
920.884,1.218
921.120,1.211
921.356,1.212
921.592,1.219
921.828,1.211
922.065,1.205
922.301,1.216
922.537,1.230
922.774,1.240
923.011,1.233
923.247,1.212
923.484,1.205
923.721,1.221
923.958,1.226
924.195,1.228
924.433,1.228
924.670,1.230
924.908,1.216
925.145,1.204
925.383,1.219
925.621,1.214
925.859,1.209
926.097,1.221
926.335,1.223
926.574,1.216
926.813,1.228
927.051,1.231
927.290,1.223
927.529,1.223
927.769,1.240
928.008,1.252
928.248,1.244
928.487,1.219
928.727,1.218
928.967,1.237
929.208,1.245
929.448,1.235
929.689,1.233
929.930,1.228
930.171,1.209
930.413,1.204
930.654,1.211
930.896,1.216
931.138,1.207
931.380,1.198
931.623,1.204
931.865,1.212
932.108,1.226
932.352,1.230
932.595,1.228
932.839,1.233
933.083,1.238
933.327,1.226
933.571,1.223
933.816,1.207
934.061,1.212
934.307,1.221
934.552,1.207
934.798,1.195
935.045,1.209
935.291,1.219
935.538,1.214
935.785,1.221
936.033,1.235
936.281,1.238
936.529,1.245
936.777,1.238
937.026,1.226
937.275,1.216
937.525,1.216
937.775,1.202
938.025,1.197
938.276,1.184
938.527,1.177
938.778,1.184
939.030,1.186
939.282,1.184
939.535,1.190
939.788,1.198
940.041,1.205
940.295,1.204
940.550,1.209
940.804,1.207
941.059,1.226
941.315,1.224
941.571,1.216
941.828,1.205
942.085,1.209
942.342,1.214
942.600,1.216
942.858,1.216
943.117,1.218
943.377,1.209
943.636,1.212
943.897,1.205
944.158,1.204
944.419,1.214
944.681,1.223
944.944,1.221
945.207,1.223
945.470,1.226
945.734,1.231
945.999,1.242
946.264,1.245
946.530,1.251
946.797,1.237
947.064,1.230
947.331,1.233
947.600,1.223
947.869,1.214
948.138,1.212
948.408,1.207
948.679,1.205
948.950,1.218
949.222,1.219
949.495,1.207
949.768,1.205
950.043,1.216
