Wavelength (nm),Intensity B5.3,,C:/Users/Brend/Desktop/LED Spectras v2/Blinds/-Interference/Spectrometer Data (Newer).sp,,,B5.3,
379.792,1.584,,2018-07-02 14:45:13,,Integration Time,100 ms,
380.000,1.569,,Analyze Light,,Number of Scans to Average,25,
380.209,1.562,,,,Smoothing,0,
380.418,1.574
380.627,1.590
380.837,1.600
381.048,1.608
381.259,1.609
381.471,1.600
381.683,1.604
381.896,1.610
382.110,1.616
382.324,1.628
382.538,1.644
382.753,1.645
382.969,1.636
383.185,1.619
383.402,1.620
383.619,1.628
383.837,1.634
384.055,1.650
384.274,1.671
384.493,1.677
384.712,1.677
384.932,1.673
385.153,1.685
385.374,1.687
385.596,1.700
385.818,1.710
386.040,1.728
386.263,1.730
386.487,1.732
386.710,1.730
386.935,1.723
387.159,1.709
387.385,1.715
387.610,1.717
387.836,1.719
388.063,1.730
388.289,1.736
388.517,1.742
388.744,1.744
388.972,1.737
389.201,1.747
389.430,1.745
389.659,1.747
389.889,1.751
390.119,1.760
390.349,1.762
390.580,1.777
390.811,1.789
391.042,1.783
391.274,1.782
391.507,1.791
391.739,1.792
391.972,1.781
392.205,1.785
392.439,1.799
392.673,1.813
392.907,1.823
393.142,1.827
393.377,1.833
393.612,1.834
393.848,1.843
394.084,1.849
394.320,1.859
394.557,1.864
394.794,1.872
395.031,1.867
395.269,1.879
395.507,1.887
395.745,1.887
395.983,1.883
396.222,1.899
396.461,1.908
396.700,1.924
396.940,1.940
397.180,1.932
397.420,1.935
397.660,1.933
397.901,1.927
398.142,1.928
398.383,1.948
398.625,1.935
398.866,1.931
399.108,1.960
399.351,1.975
399.593,1.992
399.836,1.970
400.079,1.964
400.322,1.955
400.566,1.959
400.809,1.958
401.053,1.962
401.298,1.967
401.542,1.969
401.787,1.979
402.031,1.998
402.277,2.008
402.522,2.023
402.767,2.025
403.013,2.019
403.259,1.999
403.505,2.015
403.752,2.015
403.998,2.016
404.245,2.025
404.492,2.056
404.739,2.058
404.986,2.057
405.234,2.057
405.482,2.058
405.730,2.053
405.978,2.059
406.226,2.064
406.475,2.058
406.723,2.059
406.972,2.073
407.221,2.090
407.470,2.103
407.720,2.099
407.969,2.097
408.219,2.088
408.469,2.102
408.719,2.110
408.969,2.116
409.219,2.113
409.470,2.120
409.720,2.121
409.971,2.132
410.222,2.148
410.473,2.164
410.724,2.155
410.976,2.158
411.227,2.168
411.479,2.172
411.731,2.170
411.983,2.182
412.235,2.178
412.487,2.169
412.740,2.168
412.992,2.185
413.245,2.187
413.497,2.189
413.750,2.193
414.003,2.192
414.257,2.184
414.510,2.192
414.763,2.196
415.017,2.211
415.270,2.212
415.524,2.217
415.778,2.218
416.032,2.215
416.286,2.215
416.540,2.230
416.794,2.220
417.049,2.227
417.303,2.217
417.558,2.223
417.812,2.232
418.067,2.239
418.322,2.241
418.577,2.251
418.832,2.246
419.088,2.233
419.343,2.218
419.598,2.234
419.854,2.219
420.109,2.232
420.365,2.245
420.621,2.253
420.876,2.249
421.132,2.257
421.388,2.259
421.645,2.256
421.901,2.257
422.157,2.263
422.413,2.260
422.670,2.262
422.926,2.257
423.183,2.265
423.439,2.267
423.696,2.289
423.953,2.297
424.210,2.326
424.467,2.345
424.724,2.334
424.981,2.327
425.238,2.329
425.495,2.340
425.753,2.368
426.010,2.379
426.267,2.391
426.525,2.403
426.782,2.439
427.040,2.453
427.298,2.487
427.555,2.524
427.813,2.565
428.071,2.577
428.329,2.612
428.587,2.641
428.845,2.675
429.103,2.721
429.361,2.777
429.619,2.807
429.878,2.855
430.136,2.899
430.394,2.966
430.653,3.015
430.911,3.118
431.170,3.200
431.428,3.268
431.687,3.330
431.946,3.422
432.204,3.506
432.463,3.605
432.722,3.713
432.981,3.810
433.240,3.907
433.499,4.052
433.758,4.186
434.017,4.320
434.276,4.438
434.535,4.589
434.794,4.747
435.053,4.916
435.312,5.076
435.572,5.247
435.831,5.414
436.090,5.618
436.350,5.819
436.609,6.056
436.869,6.292
437.128,6.535
437.388,6.740
437.647,6.992
437.907,7.239
438.166,7.516
438.426,7.764
438.686,8.064
438.946,8.354
439.205,8.665
439.465,8.980
439.725,9.334
439.985,9.691
440.245,10.047
440.505,10.381
440.765,10.770
441.025,11.168
441.285,11.569
441.545,11.955
441.805,12.388
442.065,12.841
442.325,13.312
442.585,13.791
442.846,14.351
443.106,14.879
443.366,15.458
443.626,16.067
443.887,16.645
444.147,17.288
444.407,17.937
444.668,18.600
444.928,19.346
445.189,20.086
445.449,20.882
445.710,21.683
445.970,22.565
446.231,23.494
446.491,24.462
446.752,25.487
447.012,26.529
447.273,27.585
447.534,28.701
447.794,29.861
448.055,31.046
448.316,32.313
448.577,33.679
448.837,35.076
449.098,36.541
449.359,38.050
449.620,39.547
449.881,41.064
450.142,42.597
450.403,44.146
450.664,45.808
450.924,47.517
451.185,49.240
451.446,50.956
451.707,52.728
451.969,54.413
452.230,56.124
452.491,57.816
452.752,59.473
453.013,61.070
453.274,62.651
453.535,64.153
453.796,65.579
454.058,66.894
454.319,68.146
454.580,69.312
454.841,70.341
455.103,71.256
455.364,72.055
455.625,72.706
455.887,73.285
456.148,73.733
456.409,73.980
456.671,74.126
456.932,74.113
457.194,73.912
457.455,73.626
457.716,73.178
457.978,72.606
458.239,71.928
458.501,71.119
458.763,70.240
459.024,69.257
459.286,68.091
459.547,66.842
459.809,65.572
460.071,64.155
460.332,62.712
460.594,61.250
460.856,59.750
461.117,58.256
461.379,56.729
461.641,55.207
461.903,53.686
462.164,52.142
462.426,50.656
462.688,49.211
462.950,47.773
463.212,46.395
463.474,45.110
463.736,43.859
463.998,42.657
464.260,41.535
464.522,40.475
464.784,39.492
465.046,38.560
465.308,37.687
465.570,36.861
465.832,36.121
466.094,35.355
466.356,34.667
466.618,33.959
466.880,33.319
467.142,32.727
467.405,32.178
467.667,31.661
467.929,31.172
468.191,30.676
468.454,30.177
468.716,29.677
468.978,29.191
469.241,28.692
469.503,28.204
469.765,27.719
470.028,27.273
470.290,26.835
470.552,26.356
470.815,25.921
471.077,25.474
471.340,24.970
471.602,24.499
471.865,24.020
472.128,23.536
472.390,23.043
472.653,22.582
472.915,22.100
473.178,21.578
473.441,21.083
473.703,20.563
473.966,20.016
474.229,19.516
474.492,19.005
474.755,18.480
475.017,17.936
475.280,17.479
475.543,16.962
475.806,16.501
476.069,16.032
476.332,15.546
476.595,15.065
476.858,14.633
477.121,14.182
477.384,13.731
477.647,13.328
477.910,12.944
478.173,12.574
478.436,12.199
478.699,11.829
478.962,11.512
479.226,11.194
479.489,10.870
479.752,10.560
480.015,10.282
480.279,9.995
480.542,9.749
480.805,9.478
481.069,9.226
481.332,8.989
481.595,8.779
481.859,8.557
482.122,8.405
482.386,8.179
482.649,7.957
482.913,7.729
483.177,7.548
483.440,7.342
483.704,7.178
483.967,7.039
484.231,6.920
484.495,6.751
484.759,6.610
485.022,6.452
485.286,6.300
485.550,6.126
485.814,5.968
486.078,5.800
486.342,5.667
486.606,5.529
486.869,5.412
487.133,5.286
487.397,5.181
487.662,5.054
487.926,4.950
488.190,4.801
488.454,4.687
488.718,4.537
488.982,4.424
489.246,4.294
489.511,4.189
489.775,4.063
490.039,3.946
490.304,3.847
490.568,3.745
490.832,3.632
491.097,3.564
491.361,3.468
491.626,3.379
491.890,3.277
492.155,3.198
492.419,3.114
492.684,3.039
492.949,2.951
493.213,2.875
493.478,2.814
493.743,2.762
494.008,2.669
494.272,2.589
494.537,2.531
494.802,2.496
495.067,2.446
495.332,2.414
495.597,2.367
495.862,2.337
496.127,2.281
496.392,2.245
496.657,2.203
496.922,2.159
497.187,2.126
497.452,2.100
497.718,2.064
497.983,2.059
498.248,2.031
498.513,2.000
498.779,1.968
499.044,1.965
499.310,1.935
499.575,1.893
499.841,1.874
500.106,1.862
500.372,1.836
500.637,1.810
500.903,1.813
501.168,1.813
501.434,1.792
501.700,1.770
501.966,1.745
502.231,1.731
502.497,1.712
502.763,1.697
503.029,1.681
503.295,1.670
503.561,1.663
503.827,1.658
504.093,1.650
504.359,1.638
504.625,1.626
504.891,1.621
505.157,1.602
505.423,1.603
505.690,1.583
505.956,1.561
506.222,1.543
506.489,1.541
506.755,1.554
507.021,1.551
507.288,1.537
507.554,1.532
507.821,1.518
508.087,1.513
508.354,1.505
508.621,1.514
508.887,1.497
509.154,1.480
509.421,1.473
509.687,1.462
509.954,1.447
510.221,1.447
510.488,1.443
510.755,1.447
511.022,1.449
511.289,1.444
511.556,1.429
511.823,1.417
512.090,1.415
512.357,1.426
512.624,1.417
512.891,1.415
513.159,1.407
513.426,1.397
513.693,1.389
513.960,1.389
514.228,1.395
514.495,1.398
514.763,1.399
515.030,1.391
515.298,1.379
515.565,1.366
515.833,1.371
516.100,1.367
516.368,1.360
516.636,1.357
516.904,1.351
517.171,1.358
517.439,1.348
517.707,1.344
517.975,1.339
518.243,1.341
518.511,1.345
518.779,1.333
519.047,1.320
519.315,1.337
519.583,1.337
519.851,1.323
520.119,1.320
520.387,1.320
520.656,1.316
520.924,1.322
521.192,1.324
521.461,1.323
521.729,1.323
521.997,1.326
522.266,1.326
522.534,1.322
522.803,1.317
523.071,1.316
523.340,1.312
523.609,1.296
523.877,1.289
524.146,1.292
524.415,1.294
524.684,1.298
524.952,1.302
525.221,1.289
525.490,1.286
525.759,1.296
526.028,1.297
526.297,1.287
526.566,1.283
526.835,1.291
527.104,1.294
527.373,1.301
527.642,1.295
527.912,1.287
528.181,1.283
528.450,1.279
528.719,1.279
528.989,1.281
529.258,1.299
529.528,1.306
529.797,1.294
530.067,1.286
530.336,1.287
530.606,1.275
530.875,1.262
531.145,1.256
531.414,1.262
531.684,1.282
531.954,1.287
532.224,1.278
532.493,1.263
532.763,1.251
533.033,1.252
533.303,1.265
533.573,1.271
533.843,1.269
534.113,1.250
534.383,1.251
534.653,1.246
534.923,1.249
535.193,1.264
535.463,1.271
535.733,1.282
536.004,1.287
536.274,1.281
536.544,1.276
536.814,1.266
537.085,1.247
537.355,1.252
537.626,1.269
537.896,1.276
538.166,1.268
538.437,1.262
538.707,1.253
538.978,1.249
539.249,1.259
539.519,1.260
539.790,1.242
540.061,1.234
540.331,1.247
540.602,1.258
540.873,1.265
541.144,1.266
541.414,1.267
541.685,1.264
541.956,1.260
542.227,1.255
542.498,1.247
542.769,1.241
543.040,1.236
543.311,1.240
543.582,1.248
543.853,1.258
544.124,1.260
544.396,1.268
544.667,1.270
544.938,1.265
545.209,1.251
545.480,1.229
545.752,1.245
546.023,1.249
546.294,1.246
546.566,1.242
546.837,1.233
547.109,1.226
547.380,1.232
547.652,1.233
547.923,1.235
548.195,1.241
548.466,1.254
548.738,1.260
549.009,1.262
549.281,1.255
549.553,1.244
549.824,1.238
550.096,1.235
550.368,1.240
550.640,1.241
550.911,1.243
551.183,1.249
551.455,1.271
551.727,1.281
551.999,1.272
552.271,1.257
552.543,1.247
552.815,1.255
553.087,1.252
553.359,1.269
553.631,1.272
553.903,1.263
554.175,1.259
554.447,1.274
554.719,1.276
554.991,1.263
555.263,1.257
555.535,1.243
555.808,1.241
556.080,1.247
556.352,1.246
556.624,1.250
556.897,1.251
557.169,1.239
557.441,1.239
557.714,1.241
557.986,1.235
558.258,1.239
558.531,1.227
558.803,1.234
559.076,1.242
559.348,1.237
559.621,1.235
559.893,1.245
560.166,1.251
560.438,1.242
560.711,1.236
560.983,1.229
561.256,1.226
561.528,1.235
561.801,1.240
562.074,1.248
562.346,1.253
562.619,1.261
562.892,1.264
563.164,1.252
563.437,1.245
563.710,1.255
563.983,1.248
564.255,1.236
564.528,1.234
564.801,1.254
565.074,1.255
565.346,1.242
565.619,1.231
565.892,1.241
566.165,1.245
566.438,1.237
566.711,1.222
566.984,1.222
567.257,1.221
567.529,1.227
567.802,1.239
568.075,1.253
568.348,1.250
568.621,1.245
568.894,1.247
569.167,1.243
569.440,1.248
569.713,1.239
569.986,1.222
570.259,1.221
570.532,1.223
570.805,1.230
571.078,1.234
571.351,1.230
571.625,1.231
571.898,1.234
572.171,1.224
572.444,1.215
572.717,1.219
572.990,1.237
573.263,1.236
573.536,1.223
573.809,1.210
574.083,1.201
574.356,1.215
574.629,1.234
574.902,1.242
575.175,1.236
575.448,1.222
575.721,1.205
575.995,1.201
576.268,1.210
576.541,1.215
576.814,1.233
577.087,1.241
577.361,1.242
577.634,1.236
577.907,1.226
578.180,1.206
578.453,1.206
578.727,1.220
579.000,1.220
579.273,1.223
579.546,1.237
579.820,1.242
580.093,1.248
580.366,1.237
580.639,1.222
580.913,1.207
581.186,1.218
581.459,1.218
581.732,1.215
582.005,1.207
582.279,1.203
582.552,1.203
582.825,1.217
583.098,1.218
583.372,1.216
583.645,1.216
583.918,1.214
584.191,1.221
584.464,1.226
584.738,1.222
585.011,1.221
585.284,1.230
585.557,1.220
585.831,1.214
586.104,1.227
586.377,1.239
586.650,1.252
586.923,1.243
587.196,1.235
587.470,1.232
587.743,1.220
588.016,1.222
588.289,1.225
588.562,1.230
588.835,1.238
589.109,1.231
589.382,1.220
589.655,1.219
589.928,1.221
590.201,1.215
590.474,1.218
590.747,1.229
591.020,1.237
591.293,1.232
591.567,1.232
591.840,1.222
592.113,1.216
592.386,1.212
592.659,1.201
592.932,1.203
593.205,1.213
593.478,1.221
593.751,1.216
594.024,1.214
594.297,1.215
594.570,1.200
594.843,1.200
595.116,1.210
595.389,1.211
595.662,1.210
595.934,1.211
596.207,1.215
596.480,1.214
596.753,1.216
597.026,1.219
597.299,1.220
597.572,1.221
597.844,1.226
598.117,1.218
598.390,1.200
598.663,1.205
598.936,1.217
599.208,1.223
599.481,1.217
599.754,1.221
600.026,1.217
600.299,1.200
600.572,1.198
600.844,1.205
601.117,1.200
601.390,1.195
601.662,1.200
601.935,1.195
602.207,1.190
602.480,1.202
602.752,1.203
603.025,1.186
603.297,1.186
603.570,1.198
603.842,1.210
604.115,1.219
604.387,1.214
604.660,1.214
604.932,1.211
605.204,1.216
605.477,1.230
605.749,1.232
606.021,1.233
606.294,1.235
606.566,1.227
606.838,1.212
607.110,1.209
607.383,1.217
607.655,1.217
607.927,1.217
608.199,1.222
608.471,1.219
608.743,1.214
609.015,1.205
609.287,1.201
609.559,1.200
609.831,1.205
610.103,1.213
610.375,1.212
610.647,1.205
610.919,1.200
611.191,1.202
611.463,1.204
611.735,1.201
612.007,1.196
612.278,1.190
612.550,1.206
612.822,1.215
613.094,1.222
613.365,1.222
613.637,1.209
613.909,1.212
614.180,1.213
614.452,1.214
614.723,1.217
614.995,1.210
615.266,1.205
615.538,1.211
615.809,1.215
616.081,1.212
616.352,1.208
616.623,1.209
616.895,1.200
617.166,1.202
617.437,1.202
617.709,1.211
617.980,1.222
618.251,1.226
618.522,1.231
618.793,1.233
619.065,1.240
619.336,1.240
619.607,1.212
619.878,1.209
620.149,1.217
620.420,1.219
620.691,1.210
620.962,1.208
621.232,1.227
621.503,1.223
621.774,1.208
622.045,1.211
622.316,1.211
622.586,1.221
622.857,1.230
623.128,1.233
623.398,1.222
623.669,1.215
623.940,1.209
624.210,1.195
624.481,1.207
624.751,1.225
625.021,1.214
625.292,1.204
625.562,1.206
625.833,1.211
626.103,1.206
626.373,1.202
626.643,1.195
626.914,1.201
627.184,1.207
627.454,1.210
627.724,1.213
627.994,1.211
628.264,1.209
628.534,1.209
628.804,1.199
629.074,1.198
629.344,1.204
629.614,1.200
629.884,1.196
630.154,1.196
630.424,1.188
630.693,1.184
630.963,1.178
631.233,1.172
631.502,1.169
631.772,1.181
632.041,1.192
632.311,1.200
632.581,1.201
632.850,1.200
633.119,1.195
633.389,1.183
633.658,1.175
633.928,1.180
634.197,1.201
634.466,1.209
634.735,1.211
635.004,1.218
635.274,1.202
635.543,1.197
635.812,1.194
636.081,1.192
636.350,1.197
636.619,1.198
636.888,1.199
637.157,1.194
637.426,1.198
637.694,1.212
637.963,1.206
638.232,1.212
638.501,1.210
638.769,1.202
639.038,1.212
639.307,1.214
639.575,1.216
639.844,1.215
640.112,1.202
640.381,1.194
640.649,1.185
640.917,1.195
641.186,1.201
641.454,1.198
641.722,1.205
641.991,1.200
642.259,1.190
642.527,1.186
642.795,1.198
643.063,1.196
643.331,1.184
643.599,1.192
643.867,1.202
644.135,1.209
644.403,1.208
644.671,1.213
644.939,1.204
645.206,1.213
645.474,1.214
645.742,1.212
646.009,1.200
646.277,1.193
646.545,1.198
646.812,1.204
647.080,1.214
647.347,1.216
647.615,1.215
647.882,1.202
648.149,1.189
648.417,1.187
648.684,1.191
648.951,1.198
649.219,1.205
649.486,1.201
649.753,1.194
650.020,1.188
650.287,1.183
650.554,1.184
650.821,1.189
651.088,1.187
651.355,1.187
651.622,1.194
651.889,1.190
652.155,1.193
652.422,1.187
652.689,1.195
652.956,1.200
653.222,1.196
653.489,1.212
653.755,1.233
654.022,1.226
654.288,1.207
654.555,1.201
654.821,1.200
655.088,1.206
655.354,1.212
655.620,1.210
655.887,1.217
656.153,1.218
656.419,1.219
656.685,1.212
656.951,1.201
657.217,1.195
657.483,1.194
657.749,1.195
658.015,1.193
658.281,1.198
658.547,1.197
658.813,1.191
659.079,1.193
659.345,1.186
659.610,1.182
659.876,1.186
660.142,1.190
660.407,1.193
660.673,1.194
660.939,1.199
661.204,1.202
661.470,1.198
661.735,1.189
662.000,1.197
662.266,1.202
662.531,1.190
662.796,1.189
663.062,1.189
663.327,1.190
663.592,1.189
663.857,1.199
664.122,1.193
664.388,1.193
664.653,1.196
664.918,1.201
665.183,1.203
665.448,1.195
665.712,1.197
665.977,1.196
666.242,1.207
666.507,1.198
666.772,1.168
667.037,1.168
667.301,1.175
667.566,1.182
667.831,1.191
668.095,1.197
668.360,1.189
668.624,1.180
668.889,1.180
669.153,1.189
669.418,1.186
669.682,1.179
669.946,1.188
670.211,1.196
670.475,1.207
670.739,1.208
671.004,1.208
671.268,1.221
671.532,1.255
671.796,1.254
672.060,1.217
672.324,1.221
672.588,1.226
672.852,1.228
673.116,1.241
673.380,1.280
673.644,1.268
673.908,1.202
674.172,1.193
674.436,1.200
674.700,1.205
674.963,1.204
675.227,1.212
675.491,1.205
675.754,1.194
676.018,1.195
676.282,1.197
676.545,1.198
676.809,1.187
677.072,1.177
677.336,1.177
677.599,1.180
677.863,1.182
678.126,1.180
678.389,1.187
678.653,1.202
678.916,1.209
679.179,1.196
679.442,1.186
679.706,1.193
679.969,1.195
680.232,1.194
680.495,1.203
680.758,1.218
681.021,1.212
681.284,1.193
681.547,1.185
681.810,1.188
682.073,1.200
682.336,1.208
682.599,1.206
682.862,1.198
683.125,1.199
683.388,1.202
683.651,1.208
683.913,1.202
684.176,1.195
684.439,1.186
684.702,1.178
684.964,1.174
685.227,1.178
685.490,1.187
685.752,1.201
686.015,1.207
686.277,1.199
686.540,1.190
686.802,1.185
687.065,1.182
687.327,1.191
687.590,1.196
687.852,1.191
688.115,1.184
688.377,1.182
688.639,1.182
688.902,1.184
689.164,1.189
689.426,1.196
689.689,1.210
689.951,1.204
690.213,1.193
690.475,1.194
690.737,1.191
691.000,1.180
691.262,1.179
691.524,1.184
691.786,1.195
692.048,1.203
692.310,1.204
692.572,1.187
692.834,1.174
693.096,1.175
693.358,1.185
693.620,1.189
693.882,1.196
694.144,1.200
694.406,1.198
694.668,1.193
694.930,1.183
695.192,1.172
695.453,1.176
695.715,1.189
695.977,1.192
696.239,1.191
696.501,1.188
696.762,1.191
697.024,1.201
697.286,1.195
697.548,1.182
697.809,1.179
698.071,1.179
698.333,1.185
698.594,1.189
698.856,1.188
699.118,1.196
699.379,1.198
699.641,1.197
699.902,1.206
700.164,1.204
700.426,1.199
700.687,1.189
700.949,1.182
701.210,1.186
701.472,1.183
701.733,1.176
701.995,1.171
702.256,1.180
702.518,1.184
702.779,1.182
703.041,1.182
703.302,1.198
703.563,1.192
703.825,1.179
704.086,1.178
704.348,1.177
704.609,1.179
704.871,1.188
705.132,1.200
705.393,1.192
705.655,1.178
705.916,1.181
706.177,1.188
706.439,1.185
706.700,1.185
706.961,1.179
707.223,1.181
707.484,1.174
707.745,1.139
708.007,1.141
708.268,1.148
708.529,1.132
708.790,1.119
709.052,1.112
709.313,1.108
709.574,1.120
709.835,1.132
710.097,1.130
710.358,1.117
710.619,1.109
710.881,1.105
711.142,1.097
711.403,1.093
711.664,1.086
711.926,1.082
712.187,1.081
712.448,1.094
712.709,1.102
712.970,1.102
713.232,1.105
713.493,1.109
713.754,1.116
714.015,1.112
714.277,1.116
714.538,1.118
714.799,1.121
715.060,1.132
715.322,1.124
715.583,1.124
715.844,1.119
716.105,1.110
716.367,1.103
716.628,1.100
716.889,1.098
717.150,1.093
717.411,1.090
717.673,1.086
717.934,1.097
718.195,1.103
718.457,1.099
718.718,1.088
718.979,1.088
719.240,1.093
719.502,1.103
719.763,1.116
720.024,1.120
720.286,1.117
720.547,1.105
720.808,1.091
721.069,1.095
721.331,1.103
721.592,1.112
721.853,1.111
722.115,1.109
722.376,1.114
722.638,1.117
722.899,1.107
723.160,1.101
723.422,1.094
723.683,1.092
723.944,1.097
724.206,1.109
724.467,1.099
724.729,1.102
724.990,1.102
725.252,1.100
725.513,1.099
725.775,1.080
726.036,1.078
726.298,1.086
726.559,1.085
726.821,1.091
727.082,1.094
727.344,1.099
727.605,1.097
727.867,1.099
728.128,1.099
728.390,1.100
728.652,1.101
728.913,1.111
729.175,1.117
729.436,1.107
729.698,1.110
729.960,1.114
730.221,1.101
730.483,1.089
730.745,1.083
731.007,1.088
731.268,1.085
731.530,1.083
731.792,1.089
732.054,1.096
732.315,1.104
732.577,1.108
732.839,1.105
733.101,1.096
733.363,1.090
733.625,1.092
733.887,1.091
734.149,1.093
734.411,1.092
734.673,1.103
734.935,1.105
735.197,1.098
735.459,1.097
735.721,1.107
735.983,1.102
736.245,1.090
736.507,1.086
736.769,1.105
737.031,1.111
737.293,1.107
737.555,1.094
737.818,1.086
738.080,1.090
738.342,1.086
738.604,1.083
738.867,1.085
739.129,1.086
739.391,1.083
739.654,1.082
739.916,1.088
740.178,1.089
740.441,1.097
740.703,1.098
740.966,1.090
741.228,1.084
741.491,1.083
741.753,1.083
742.016,1.092
742.278,1.092
742.541,1.088
742.804,1.093
743.066,1.100
743.329,1.106
743.592,1.102
743.854,1.098
744.117,1.103
744.380,1.111
744.643,1.106
744.905,1.101
745.168,1.097
745.431,1.091
745.694,1.084
745.957,1.087
746.220,1.090
746.483,1.087
746.746,1.089
747.009,1.094
747.272,1.111
747.535,1.123
747.798,1.116
748.061,1.105
748.324,1.094
748.588,1.074
748.851,1.084
749.114,1.097
749.377,1.102
749.641,1.103
749.904,1.096
750.167,1.103
750.431,1.107
750.694,1.102
750.958,1.107
751.221,1.107
751.485,1.093
751.748,1.081
752.012,1.083
752.275,1.092
752.539,1.105
752.803,1.102
753.066,1.095
753.330,1.088
753.594,1.081
753.857,1.075
754.121,1.081
754.385,1.093
754.649,1.098
754.913,1.099
755.177,1.112
755.441,1.117
755.705,1.099
755.969,1.094
756.233,1.102
756.497,1.105
756.761,1.102
757.025,1.097
757.289,1.092
757.553,1.089
757.818,1.085
758.082,1.089
758.346,1.091
758.610,1.089
758.875,1.097
759.139,1.106
759.404,1.104
759.668,1.092
759.932,1.089
760.197,1.095
760.462,1.104
760.726,1.101
760.991,1.096
761.255,1.098
761.520,1.103
761.785,1.107
762.049,1.100
762.314,1.088
762.579,1.092
762.844,1.106
763.109,1.104
763.374,1.096
763.639,1.094
763.903,1.100
764.168,1.086
764.433,1.077
764.699,1.085
764.964,1.103
765.229,1.098
765.494,1.088
765.759,1.087
766.024,1.090
766.290,1.096
766.555,1.105
766.820,1.111
767.086,1.108
767.351,1.110
767.616,1.101
767.882,1.095
768.147,1.095
768.413,1.092
768.678,1.075
768.944,1.082
769.209,1.089
769.475,1.100
769.741,1.108
770.006,1.113
770.272,1.115
770.538,1.116
770.804,1.110
771.070,1.102
771.335,1.107
771.601,1.121
771.867,1.123
772.133,1.114
772.399,1.111
772.665,1.099
772.931,1.095
773.197,1.107
773.464,1.116
773.730,1.121
773.996,1.128
774.262,1.126
774.528,1.121
774.795,1.114
775.061,1.108
775.327,1.113
775.594,1.109
775.860,1.100
776.126,1.093
776.393,1.083
776.659,1.084
776.926,1.083
777.193,1.086
777.459,1.095
777.726,1.091
777.992,1.088
778.259,1.092
778.526,1.092
778.793,1.095
779.059,1.098
779.326,1.104
779.593,1.104
779.860,1.105
780.127,1.110
780.394,1.103
780.661,1.100
780.928,1.097
781.195,1.090
781.462,1.090
781.729,1.098
781.996,1.103
782.263,1.104
782.530,1.105
782.797,1.115
783.064,1.101
783.332,1.093
783.599,1.093
783.866,1.092
784.134,1.098
784.401,1.089
784.668,1.090
784.936,1.094
785.203,1.092
785.470,1.077
785.738,1.074
786.005,1.083
786.273,1.086
786.541,1.077
786.808,1.081
787.076,1.091
787.343,1.090
787.611,1.095
787.879,1.099
788.146,1.100
788.414,1.102
788.682,1.108
788.950,1.094
789.217,1.086
789.485,1.098
789.753,1.109
790.021,1.099
790.289,1.091
790.557,1.079
790.825,1.073
791.093,1.079
791.361,1.103
791.629,1.108
791.897,1.111
792.165,1.111
792.433,1.105
792.701,1.099
792.969,1.092
793.237,1.085
793.505,1.083
793.773,1.097
794.042,1.102
794.310,1.090
794.578,1.089
794.846,1.088
795.115,1.083
795.383,1.090
795.651,1.093
795.920,1.101
796.188,1.105
796.456,1.101
796.725,1.110
796.993,1.105
797.261,1.105
797.530,1.106
797.798,1.103
798.067,1.106
798.335,1.118
798.604,1.113
798.872,1.103
799.141,1.096
799.409,1.091
799.678,1.096
799.946,1.095
800.215,1.101
800.483,1.100
800.752,1.103
801.020,1.101
801.289,1.094
801.558,1.094
801.826,1.101
802.095,1.099
802.363,1.088
802.632,1.094
802.901,1.099
803.169,1.102
803.438,1.102
803.707,1.091
803.976,1.089
804.244,1.089
804.513,1.090
804.782,1.082
805.050,1.073
805.319,1.081
805.588,1.096
805.857,1.105
806.125,1.103
806.394,1.107
806.663,1.096
806.931,1.091
807.200,1.083
807.469,1.082
807.738,1.086
808.006,1.087
808.275,1.089
808.544,1.108
808.813,1.114
809.082,1.109
809.350,1.096
809.619,1.090
809.888,1.095
810.157,1.087
810.425,1.089
810.694,1.091
810.963,1.088
811.232,1.090
811.500,1.081
811.769,1.072
812.038,1.075
812.306,1.084
812.575,1.089
812.844,1.094
813.113,1.098
813.381,1.097
813.650,1.093
813.919,1.109
814.187,1.107
814.456,1.110
814.725,1.111
814.993,1.108
815.262,1.101
815.531,1.101
815.799,1.101
816.068,1.092
816.336,1.081
816.605,1.075
816.873,1.080
817.142,1.090
817.411,1.103
817.679,1.107
817.948,1.117
818.216,1.126
818.485,1.139
818.753,1.162
819.021,1.155
819.290,1.103
819.558,1.084
819.827,1.095
820.095,1.093
820.363,1.096
820.632,1.101
820.900,1.095
821.168,1.091
821.437,1.098
821.705,1.101
821.973,1.109
822.241,1.119
822.509,1.114
822.777,1.109
823.046,1.105
823.314,1.100
823.582,1.103
823.850,1.111
824.118,1.112
824.386,1.108
824.654,1.099
824.922,1.078
825.190,1.074
825.457,1.079
825.725,1.096
825.993,1.096
826.261,1.085
826.529,1.086
826.796,1.089
827.064,1.082
827.332,1.079
827.599,1.087
827.867,1.095
828.134,1.106
828.402,1.095
828.669,1.082
828.937,1.082
829.204,1.097
829.471,1.115
829.739,1.128
830.006,1.121
830.273,1.113
830.540,1.107
830.807,1.101
831.075,1.097
831.342,1.102
831.609,1.104
831.876,1.090
832.142,1.104
832.409,1.106
832.676,1.102
832.943,1.099
833.210,1.095
833.476,1.084
833.743,1.088
834.010,1.098
834.276,1.087
834.543,1.075
834.809,1.088
835.076,1.096
835.342,1.090
835.608,1.089
835.874,1.107
836.141,1.107
836.407,1.092
836.673,1.095
836.939,1.092
837.205,1.093
837.471,1.089
837.737,1.084
838.002,1.090
838.268,1.091
838.534,1.088
838.799,1.096
839.065,1.096
839.330,1.100
839.596,1.102
839.861,1.098
840.127,1.107
840.392,1.109
840.657,1.110
840.922,1.116
841.187,1.126
841.452,1.122
841.717,1.124
841.982,1.126
842.247,1.111
842.511,1.096
842.776,1.100
843.041,1.102
843.305,1.089
843.570,1.083
843.834,1.091
844.098,1.089
844.362,1.095
844.627,1.097
844.891,1.086
845.155,1.093
845.419,1.100
845.682,1.100
845.946,1.102
846.210,1.107
846.474,1.104
846.737,1.103
847.001,1.113
847.264,1.097
847.527,1.084
847.790,1.093
848.054,1.101
848.317,1.096
848.580,1.092
848.843,1.086
849.105,1.091
849.368,1.110
849.631,1.118
849.893,1.111
850.156,1.118
850.418,1.131
850.680,1.112
850.943,1.095
851.205,1.102
851.467,1.109
851.729,1.096
851.991,1.100
852.252,1.102
852.514,1.109
852.776,1.112
853.037,1.110
853.298,1.115
853.560,1.102
853.821,1.086
854.082,1.080
854.343,1.090
854.604,1.105
854.865,1.124
855.126,1.129
855.386,1.127
855.647,1.132
855.907,1.123
856.168,1.105
856.428,1.100
856.688,1.108
856.948,1.108
857.208,1.091
857.468,1.091
857.727,1.100
857.987,1.093
858.247,1.096
858.506,1.113
858.765,1.120
859.024,1.107
859.284,1.087
859.543,1.086
859.801,1.079
860.060,1.080
860.319,1.089
860.577,1.102
860.836,1.101
861.094,1.107
861.352,1.111
861.611,1.107
861.869,1.099
862.127,1.093
862.384,1.098
862.642,1.103
862.900,1.098
863.157,1.111
863.414,1.111
863.672,1.091
863.929,1.087
864.186,1.082
864.443,1.085
864.699,1.090
864.956,1.099
865.212,1.100
865.469,1.094
865.725,1.101
865.981,1.111
866.237,1.102
866.493,1.095
866.749,1.091
867.005,1.081
867.260,1.085
867.516,1.084
867.771,1.082
868.026,1.086
868.282,1.095
868.536,1.104
868.791,1.103
869.046,1.091
869.301,1.084
869.555,1.086
869.809,1.097
870.064,1.109
870.318,1.109
870.572,1.115
870.826,1.116
871.079,1.090
871.333,1.098
871.586,1.102
871.840,1.090
872.093,1.090
872.346,1.093
872.599,1.096
872.852,1.118
873.105,1.128
873.357,1.123
873.610,1.113
873.862,1.108
874.114,1.115
874.366,1.116
874.618,1.109
874.870,1.100
875.121,1.085
875.373,1.086
875.624,1.091
875.876,1.095
876.127,1.090
876.378,1.089
876.629,1.092
876.879,1.096
877.130,1.100
877.381,1.096
877.631,1.079
877.881,1.081
878.131,1.091
878.381,1.099
878.631,1.112
878.881,1.119
879.130,1.115
879.380,1.108
879.629,1.098
879.878,1.093
880.127,1.093
880.376,1.097
880.625,1.111
880.873,1.116
881.122,1.114
881.370,1.105
881.618,1.103
881.866,1.093
882.114,1.091
882.362,1.091
882.610,1.091
882.857,1.098
883.105,1.093
883.352,1.092
883.599,1.078
883.846,1.084
884.093,1.084
884.340,1.085
884.586,1.099
884.833,1.101
885.079,1.095
885.325,1.093
885.571,1.093
885.817,1.098
886.063,1.104
886.309,1.110
886.554,1.107
886.800,1.117
887.045,1.120
887.290,1.109
887.535,1.096
887.780,1.089
888.025,1.097
888.270,1.111
888.514,1.120
888.758,1.121
889.003,1.109
889.247,1.095
889.491,1.089
889.735,1.110
889.978,1.115
890.222,1.108
890.465,1.104
890.709,1.107
890.952,1.098
891.195,1.090
891.438,1.089
891.681,1.082
891.923,1.076
892.166,1.087
892.408,1.094
892.651,1.085
892.893,1.081
893.135,1.081
893.377,1.079
893.619,1.085
893.861,1.091
894.102,1.095
894.344,1.098
894.585,1.117
894.826,1.126
895.067,1.122
895.308,1.105
895.549,1.100
895.790,1.083
896.031,1.078
896.271,1.084
896.512,1.096
896.752,1.104
896.992,1.103
897.232,1.100
897.472,1.091
897.712,1.098
897.952,1.117
898.191,1.127
898.431,1.119
898.670,1.116
898.910,1.119
899.149,1.121
899.388,1.132
899.627,1.130
899.866,1.116
900.105,1.105
900.343,1.090
900.582,1.092
900.820,1.106
901.059,1.111
901.297,1.121
901.535,1.113
901.773,1.087
902.011,1.088
902.249,1.086
902.487,1.074
902.725,1.076
902.963,1.093
903.200,1.098
903.438,1.088
903.675,1.091
903.912,1.095
904.150,1.103
904.387,1.116
904.624,1.102
904.861,1.083
905.098,1.088
905.334,1.088
905.571,1.097
905.808,1.095
906.045,1.097
906.281,1.110
906.518,1.112
906.754,1.104
906.990,1.109
907.227,1.110
907.463,1.099
907.699,1.090
907.935,1.095
908.171,1.104
908.407,1.110
908.643,1.103
908.879,1.098
909.115,1.102
909.350,1.104
909.586,1.105
909.822,1.112
910.057,1.121
910.293,1.132
910.528,1.146
910.764,1.131
910.999,1.120
911.235,1.123
911.470,1.116
911.706,1.118
911.941,1.116
912.176,1.111
912.412,1.100
912.647,1.100
912.882,1.107
913.117,1.112
913.352,1.109
913.588,1.097
913.823,1.094
914.058,1.094
914.293,1.097
914.528,1.100
914.763,1.086
914.999,1.089
915.234,1.097
915.469,1.100
915.704,1.104
915.939,1.094
916.174,1.078
916.409,1.078
916.645,1.093
916.880,1.107
917.115,1.113
917.350,1.109
917.586,1.098
917.821,1.102
918.056,1.104
918.292,1.110
918.527,1.108
918.763,1.100
918.998,1.094
919.234,1.105
919.469,1.125
919.705,1.125
919.940,1.114
920.176,1.107
920.412,1.114
920.648,1.118
920.884,1.107
921.120,1.098
921.356,1.097
921.592,1.100
921.828,1.095
922.065,1.097
922.301,1.104
922.537,1.116
922.774,1.116
923.011,1.116
923.247,1.098
923.484,1.103
923.721,1.111
923.958,1.107
924.195,1.104
924.433,1.107
924.670,1.104
924.908,1.089
925.145,1.092
925.383,1.107
925.621,1.109
925.859,1.104
926.097,1.116
926.335,1.110
926.574,1.098
926.813,1.109
927.051,1.112
927.290,1.105
927.529,1.113
927.769,1.130
928.008,1.132
928.248,1.121
928.487,1.099
928.727,1.103
928.967,1.117
929.208,1.134
929.448,1.124
929.689,1.110
929.930,1.106
930.171,1.094
930.413,1.092
930.654,1.097
930.896,1.088
931.138,1.080
931.380,1.085
931.623,1.090
931.865,1.105
932.108,1.110
932.352,1.107
932.595,1.106
932.839,1.110
933.083,1.107
933.327,1.101
933.571,1.102
933.816,1.097
934.061,1.104
934.307,1.108
934.552,1.098
934.798,1.095
935.045,1.112
935.291,1.104
935.538,1.097
935.785,1.104
936.033,1.111
936.281,1.118
936.529,1.131
936.777,1.127
937.026,1.113
937.275,1.099
937.525,1.090
937.775,1.079
938.025,1.081
938.276,1.080
938.527,1.079
938.778,1.086
939.030,1.091
939.282,1.090
939.535,1.094
939.788,1.102
940.041,1.101
940.295,1.092
940.550,1.086
940.804,1.098
941.059,1.116
941.315,1.107
941.571,1.091
941.828,1.088
942.085,1.086
942.342,1.085
942.600,1.092
942.858,1.093
943.117,1.089
943.377,1.090
943.636,1.090
943.897,1.088
944.158,1.091
944.419,1.095
944.681,1.098
944.944,1.094
945.207,1.106
945.470,1.107
945.734,1.109
945.999,1.111
946.264,1.123
946.530,1.122
946.797,1.112
947.064,1.111
947.331,1.114
947.600,1.110
947.869,1.099
948.138,1.093
948.408,1.093
948.679,1.081
948.950,1.095
949.222,1.100
949.495,1.090
949.768,1.099
950.043,1.105
