Wavelength (nm),Intensity BB8.1,,C:/Users/Brend/Desktop/LED Spectras v2/Blinds/-Interference/Spectrometer Data (Newer).sp,,,BB8.1,
379.792,1.613,,2018-07-02 14:37:15,,Integration Time,100 ms,
380.000,1.600,,Analyze Light,,Number of Scans to Average,25,
380.209,1.602,,,,Smoothing,0,
380.418,1.616
380.627,1.628
380.837,1.640
381.048,1.649
381.259,1.641
381.471,1.623
381.683,1.625
381.896,1.636
382.110,1.636
382.324,1.632
382.538,1.647
382.753,1.663
382.969,1.662
383.185,1.640
383.402,1.643
383.619,1.643
383.837,1.660
384.055,1.672
384.274,1.688
384.493,1.695
384.712,1.677
384.932,1.686
385.153,1.688
385.374,1.690
385.596,1.696
385.818,1.705
386.040,1.717
386.263,1.718
386.487,1.722
386.710,1.713
386.935,1.716
387.159,1.706
387.385,1.701
387.610,1.701
387.836,1.698
388.063,1.708
388.289,1.717
388.517,1.718
388.744,1.725
388.972,1.725
389.201,1.747
389.430,1.740
389.659,1.730
389.889,1.739
390.119,1.740
390.349,1.744
390.580,1.757
390.811,1.762
391.042,1.756
391.274,1.763
391.507,1.773
391.739,1.758
391.972,1.749
392.205,1.753
392.439,1.760
392.673,1.772
392.907,1.782
393.142,1.791
393.377,1.801
393.612,1.796
393.848,1.802
394.084,1.796
394.320,1.801
394.557,1.802
394.794,1.812
395.031,1.806
395.269,1.813
395.507,1.823
395.745,1.820
395.983,1.815
396.222,1.824
396.461,1.838
396.700,1.858
396.940,1.865
397.180,1.854
397.420,1.852
397.660,1.847
397.901,1.845
398.142,1.838
398.383,1.855
398.625,1.846
398.866,1.847
399.108,1.867
399.351,1.888
399.593,1.901
399.836,1.883
400.079,1.879
400.322,1.875
400.566,1.874
400.809,1.873
401.053,1.875
401.298,1.878
401.542,1.883
401.787,1.906
402.031,1.916
402.277,1.907
402.522,1.917
402.767,1.923
403.013,1.921
403.259,1.908
403.505,1.909
403.752,1.909
403.998,1.913
404.245,1.921
404.492,1.944
404.739,1.946
404.986,1.945
405.234,1.959
405.482,1.964
405.730,1.953
405.978,1.951
406.226,1.956
406.475,1.933
406.723,1.935
406.972,1.952
407.221,1.961
407.470,1.964
407.720,1.960
407.969,1.965
408.219,1.955
408.469,1.982
408.719,1.994
408.969,1.985
409.219,1.987
409.470,1.996
409.720,1.982
409.971,1.998
410.222,2.007
410.473,2.016
410.724,2.009
410.976,2.006
411.227,2.015
411.479,2.023
411.731,2.023
411.983,2.022
412.235,2.018
412.487,2.020
412.740,2.020
412.992,2.021
413.245,2.031
413.497,2.026
413.750,2.026
414.003,2.027
414.257,2.016
414.510,2.014
414.763,2.018
415.017,2.029
415.270,2.033
415.524,2.039
415.778,2.026
416.032,2.028
416.286,2.038
416.540,2.049
416.794,2.054
417.049,2.062
417.303,2.053
417.558,2.048
417.812,2.057
418.067,2.057
418.322,2.059
418.577,2.073
418.832,2.067
419.088,2.064
419.343,2.045
419.598,2.060
419.854,2.044
420.109,2.060
420.365,2.067
420.621,2.084
420.876,2.083
421.132,2.093
421.388,2.090
421.645,2.080
421.901,2.085
422.157,2.086
422.413,2.081
422.670,2.085
422.926,2.087
423.183,2.093
423.439,2.084
423.696,2.100
423.953,2.111
424.210,2.146
424.467,2.158
424.724,2.136
424.981,2.141
425.238,2.133
425.495,2.142
425.753,2.186
426.010,2.198
426.267,2.197
426.525,2.202
426.782,2.227
427.040,2.235
427.298,2.250
427.555,2.277
427.813,2.302
428.071,2.319
428.329,2.343
428.587,2.356
428.845,2.381
429.103,2.413
429.361,2.439
429.619,2.470
429.878,2.499
430.136,2.533
430.394,2.578
430.653,2.609
430.911,2.682
431.170,2.755
431.428,2.810
431.687,2.850
431.946,2.925
432.204,2.968
432.463,3.028
432.722,3.107
432.981,3.179
433.240,3.256
433.499,3.355
433.758,3.435
434.017,3.541
434.276,3.623
434.535,3.726
434.794,3.826
435.053,3.941
435.312,4.065
435.572,4.195
435.831,4.327
436.090,4.487
436.350,4.646
436.609,4.821
436.869,4.974
437.128,5.150
437.388,5.312
437.647,5.486
437.907,5.671
438.166,5.890
438.426,6.073
438.686,6.305
438.946,6.513
439.205,6.749
439.465,6.984
439.725,7.259
439.985,7.514
440.245,7.797
440.505,8.073
440.765,8.380
441.025,8.660
441.285,8.971
441.545,9.285
441.805,9.651
442.065,10.001
442.325,10.389
442.585,10.758
442.846,11.201
443.106,11.617
443.366,12.081
443.626,12.569
443.887,13.035
444.147,13.522
444.407,14.063
444.668,14.604
444.928,15.168
445.189,15.793
445.449,16.440
445.710,17.083
445.970,17.756
446.231,18.445
446.491,19.205
446.752,19.981
447.012,20.803
447.273,21.613
447.534,22.493
447.794,23.347
448.055,24.244
448.316,25.213
448.577,26.186
448.837,27.213
449.098,28.254
449.359,29.292
449.620,30.362
449.881,31.402
450.142,32.464
450.403,33.562
450.664,34.711
450.924,35.879
451.185,37.052
451.446,38.234
451.707,39.435
451.969,40.577
452.230,41.745
452.491,42.902
452.752,44.014
453.013,45.038
453.274,46.055
453.535,47.027
453.796,47.919
454.058,48.787
454.319,49.563
454.580,50.359
454.841,51.022
455.103,51.647
455.364,52.188
455.625,52.628
455.887,53.048
456.148,53.375
456.409,53.589
456.671,53.779
456.932,53.840
457.194,53.755
457.455,53.629
457.716,53.418
457.978,53.058
458.239,52.703
458.501,52.308
458.763,51.836
459.024,51.238
459.286,50.632
459.547,49.918
459.809,49.147
460.071,48.278
460.332,47.410
460.594,46.504
460.856,45.596
461.117,44.657
461.379,43.683
461.641,42.742
461.903,41.762
462.164,40.792
462.426,39.820
462.688,38.878
462.950,37.961
463.212,37.023
463.474,36.122
463.736,35.199
463.998,34.342
464.260,33.555
464.522,32.803
464.784,32.044
465.046,31.323
465.308,30.625
465.570,30.012
465.832,29.383
466.094,28.817
466.356,28.271
466.618,27.724
466.880,27.227
467.142,26.730
467.405,26.241
467.667,25.803
467.929,25.411
468.191,25.023
468.454,24.613
468.716,24.188
468.978,23.820
469.241,23.413
469.503,23.011
469.765,22.614
470.028,22.240
470.290,21.841
470.552,21.487
470.815,21.127
471.077,20.792
471.340,20.430
471.602,20.084
471.865,19.743
472.128,19.388
472.390,19.024
472.653,18.656
472.915,18.275
473.178,17.897
473.441,17.531
473.703,17.161
473.966,16.751
474.229,16.361
474.492,15.975
474.755,15.574
475.017,15.176
475.280,14.842
475.543,14.493
475.806,14.135
476.069,13.720
476.332,13.332
476.595,12.980
476.858,12.676
477.121,12.311
477.384,11.972
477.647,11.643
477.910,11.334
478.173,11.019
478.436,10.711
478.699,10.420
478.962,10.161
479.226,9.870
479.489,9.651
479.752,9.404
480.015,9.158
480.279,8.892
480.542,8.673
480.805,8.437
481.069,8.229
481.332,8.008
481.595,7.819
481.859,7.623
482.122,7.480
482.386,7.290
482.649,7.111
482.913,6.944
483.177,6.792
483.440,6.612
483.704,6.458
483.967,6.314
484.231,6.179
484.495,6.025
484.759,5.912
485.022,5.784
485.286,5.651
485.550,5.507
485.814,5.379
486.078,5.226
486.342,5.124
486.606,5.011
486.869,4.920
487.133,4.806
487.397,4.713
487.662,4.581
487.926,4.484
488.190,4.354
488.454,4.264
488.718,4.161
488.982,4.081
489.246,3.968
489.511,3.891
489.775,3.782
490.039,3.691
490.304,3.608
490.568,3.535
490.832,3.439
491.097,3.369
491.361,3.301
491.626,3.233
491.890,3.151
492.155,3.075
492.419,3.004
492.684,2.943
492.949,2.860
493.213,2.800
493.478,2.762
493.743,2.721
494.008,2.648
494.272,2.579
494.537,2.531
494.802,2.492
495.067,2.452
495.332,2.423
495.597,2.387
495.862,2.358
496.127,2.307
496.392,2.281
496.657,2.242
496.922,2.193
497.187,2.168
497.452,2.153
497.718,2.128
497.983,2.117
498.248,2.090
498.513,2.056
498.779,2.023
499.044,2.024
499.310,2.012
499.575,1.979
499.841,1.952
500.106,1.941
500.372,1.919
500.637,1.888
500.903,1.893
501.168,1.902
501.434,1.874
501.700,1.849
501.966,1.827
502.231,1.819
502.497,1.793
502.763,1.783
503.029,1.762
503.295,1.746
503.561,1.742
503.827,1.731
504.093,1.728
504.359,1.725
504.625,1.710
504.891,1.709
505.157,1.692
505.423,1.684
505.690,1.666
505.956,1.651
506.222,1.651
506.489,1.652
506.755,1.665
507.021,1.673
507.288,1.669
507.554,1.656
507.821,1.635
508.087,1.630
508.354,1.628
508.621,1.640
508.887,1.626
509.154,1.613
509.421,1.611
509.687,1.595
509.954,1.576
510.221,1.576
510.488,1.565
510.755,1.578
511.022,1.585
511.289,1.576
511.556,1.548
511.823,1.549
512.090,1.551
512.357,1.567
512.624,1.547
512.891,1.530
513.159,1.519
513.426,1.505
513.693,1.505
513.960,1.504
514.228,1.509
514.495,1.512
514.763,1.512
515.030,1.509
515.298,1.495
515.565,1.485
515.833,1.495
516.100,1.490
516.368,1.475
516.636,1.478
516.904,1.466
517.171,1.457
517.439,1.450
517.707,1.448
517.975,1.444
518.243,1.461
518.511,1.468
518.779,1.453
519.047,1.435
519.315,1.448
519.583,1.446
519.851,1.435
520.119,1.427
520.387,1.422
520.656,1.416
520.924,1.422
521.192,1.428
521.461,1.429
521.729,1.432
521.997,1.436
522.266,1.434
522.534,1.433
522.803,1.437
523.071,1.436
523.340,1.426
523.609,1.408
523.877,1.403
524.146,1.405
524.415,1.405
524.684,1.404
524.952,1.408
525.221,1.402
525.490,1.405
525.759,1.418
526.028,1.411
526.297,1.404
526.566,1.395
526.835,1.397
527.104,1.392
527.373,1.400
527.642,1.402
527.912,1.391
528.181,1.375
528.450,1.375
528.719,1.391
528.989,1.399
529.258,1.414
529.528,1.407
529.797,1.392
530.067,1.391
530.336,1.403
530.606,1.391
530.875,1.387
531.145,1.377
531.414,1.383
531.684,1.401
531.954,1.403
532.224,1.393
532.493,1.382
532.763,1.364
533.033,1.362
533.303,1.371
533.573,1.377
533.843,1.374
534.113,1.357
534.383,1.360
534.653,1.357
534.923,1.372
535.193,1.372
535.463,1.368
535.733,1.385
536.004,1.397
536.274,1.392
536.544,1.386
536.814,1.372
537.085,1.368
537.355,1.368
537.626,1.378
537.896,1.379
538.166,1.377
538.437,1.375
538.707,1.365
538.978,1.365
539.249,1.374
539.519,1.379
539.790,1.370
540.061,1.353
540.331,1.359
540.602,1.375
540.873,1.373
541.144,1.368
541.414,1.368
541.685,1.367
541.956,1.371
542.227,1.367
542.498,1.367
542.769,1.365
543.040,1.361
543.311,1.371
543.582,1.377
543.853,1.381
544.124,1.381
544.396,1.389
544.667,1.395
544.938,1.383
545.209,1.368
545.480,1.337
545.752,1.355
546.023,1.363
546.294,1.368
546.566,1.357
546.837,1.355
547.109,1.348
547.380,1.350
547.652,1.348
547.923,1.340
548.195,1.336
548.466,1.353
548.738,1.366
549.009,1.373
549.281,1.360
549.553,1.354
549.824,1.348
550.096,1.332
550.368,1.336
550.640,1.346
550.911,1.352
551.183,1.362
551.455,1.382
551.727,1.390
551.999,1.381
552.271,1.365
552.543,1.354
552.815,1.347
553.087,1.344
553.359,1.368
553.631,1.378
553.903,1.370
554.175,1.374
554.447,1.375
554.719,1.379
554.991,1.383
555.263,1.385
555.535,1.383
555.808,1.379
556.080,1.374
556.352,1.363
556.624,1.362
556.897,1.369
557.169,1.360
557.441,1.360
557.714,1.356
557.986,1.345
558.258,1.341
558.531,1.333
558.803,1.352
559.076,1.354
559.348,1.351
559.621,1.336
559.893,1.340
560.166,1.349
560.438,1.344
560.711,1.342
560.983,1.345
561.256,1.342
561.528,1.348
561.801,1.355
562.074,1.361
562.346,1.368
562.619,1.374
562.892,1.369
563.164,1.357
563.437,1.353
563.710,1.356
563.983,1.359
564.255,1.353
564.528,1.351
564.801,1.368
565.074,1.370
565.346,1.359
565.619,1.348
565.892,1.351
566.165,1.361
566.438,1.354
566.711,1.328
566.984,1.331
567.257,1.337
567.529,1.342
567.802,1.356
568.075,1.373
568.348,1.366
568.621,1.352
568.894,1.348
569.167,1.336
569.440,1.344
569.713,1.342
569.986,1.322
570.259,1.331
570.532,1.335
570.805,1.346
571.078,1.350
571.351,1.350
571.625,1.347
571.898,1.353
572.171,1.334
572.444,1.326
572.717,1.330
572.990,1.347
573.263,1.351
573.536,1.331
573.809,1.321
574.083,1.316
574.356,1.315
574.629,1.333
574.902,1.351
575.175,1.347
575.448,1.332
575.721,1.322
575.995,1.327
576.268,1.330
576.541,1.327
576.814,1.341
577.087,1.344
577.361,1.347
577.634,1.347
577.907,1.342
578.180,1.327
578.453,1.323
578.727,1.331
579.000,1.332
579.273,1.332
579.546,1.345
579.820,1.357
580.093,1.357
580.366,1.347
580.639,1.333
580.913,1.326
581.186,1.333
581.459,1.331
581.732,1.324
582.005,1.316
582.279,1.316
582.552,1.315
582.825,1.322
583.098,1.322
583.372,1.317
583.645,1.326
583.918,1.326
584.191,1.332
584.464,1.335
584.738,1.333
585.011,1.337
585.284,1.338
585.557,1.331
585.831,1.324
586.104,1.333
586.377,1.351
586.650,1.362
586.923,1.352
587.196,1.349
587.470,1.340
587.743,1.326
588.016,1.330
588.289,1.332
588.562,1.340
588.835,1.351
589.109,1.341
589.382,1.328
589.655,1.328
589.928,1.325
590.201,1.318
590.474,1.321
590.747,1.342
591.020,1.344
591.293,1.343
591.567,1.340
591.840,1.333
592.113,1.334
592.386,1.332
592.659,1.322
592.932,1.315
593.205,1.326
593.478,1.329
593.751,1.320
594.024,1.314
594.297,1.320
594.570,1.314
594.843,1.325
595.116,1.345
595.389,1.340
595.662,1.328
595.934,1.325
596.207,1.327
596.480,1.339
596.753,1.346
597.026,1.351
597.299,1.342
597.572,1.345
597.844,1.340
598.117,1.330
598.390,1.320
598.663,1.326
598.936,1.333
599.208,1.340
599.481,1.338
599.754,1.338
600.026,1.340
600.299,1.319
600.572,1.314
600.844,1.319
601.117,1.305
601.390,1.296
601.662,1.309
601.935,1.308
602.207,1.299
602.480,1.313
602.752,1.318
603.025,1.304
603.297,1.298
603.570,1.306
603.842,1.325
604.115,1.339
604.387,1.337
604.660,1.338
604.932,1.329
605.204,1.329
605.477,1.337
605.749,1.343
606.021,1.351
606.294,1.357
606.566,1.349
606.838,1.333
607.110,1.339
607.383,1.341
607.655,1.338
607.927,1.339
608.199,1.349
608.471,1.350
608.743,1.347
609.015,1.336
609.287,1.326
609.559,1.326
609.831,1.321
610.103,1.326
610.375,1.327
610.647,1.316
610.919,1.309
611.191,1.311
611.463,1.319
611.735,1.330
612.007,1.326
612.278,1.317
612.550,1.315
612.822,1.316
613.094,1.326
613.365,1.331
613.637,1.328
613.909,1.337
614.180,1.334
614.452,1.336
614.723,1.332
614.995,1.319
615.266,1.316
615.538,1.331
615.809,1.347
616.081,1.338
616.352,1.326
616.623,1.325
616.895,1.326
617.166,1.322
617.437,1.316
617.709,1.317
617.980,1.322
618.251,1.330
618.522,1.336
618.793,1.341
619.065,1.354
619.336,1.358
619.607,1.334
619.878,1.326
620.149,1.347
620.420,1.352
620.691,1.338
620.962,1.339
621.232,1.352
621.503,1.349
621.774,1.326
622.045,1.326
622.316,1.335
622.586,1.340
622.857,1.352
623.128,1.352
623.398,1.342
623.669,1.334
623.940,1.331
624.210,1.321
624.481,1.326
624.751,1.350
625.021,1.338
625.292,1.326
625.562,1.326
625.833,1.326
626.103,1.318
626.373,1.315
626.643,1.319
626.914,1.330
627.184,1.334
627.454,1.335
627.724,1.329
627.994,1.320
628.264,1.323
628.534,1.328
628.804,1.317
629.074,1.320
629.344,1.332
629.614,1.326
629.884,1.316
630.154,1.308
630.424,1.300
630.693,1.304
630.963,1.299
631.233,1.287
631.502,1.286
631.772,1.302
632.041,1.319
632.311,1.326
632.581,1.328
632.850,1.326
633.119,1.311
633.389,1.298
633.658,1.292
633.928,1.295
634.197,1.312
634.466,1.320
634.735,1.326
635.004,1.329
635.274,1.317
635.543,1.318
635.812,1.320
636.081,1.314
636.350,1.314
636.619,1.311
636.888,1.311
637.157,1.314
637.426,1.324
637.694,1.322
637.963,1.315
638.232,1.320
638.501,1.316
638.769,1.311
639.038,1.320
639.307,1.327
639.575,1.330
639.844,1.329
640.112,1.315
640.381,1.316
640.649,1.309
640.917,1.316
641.186,1.325
641.454,1.316
641.722,1.314
641.991,1.318
642.259,1.312
642.527,1.303
642.795,1.309
643.063,1.307
643.331,1.295
643.599,1.303
643.867,1.309
644.135,1.311
644.403,1.308
644.671,1.318
644.939,1.315
645.206,1.314
645.474,1.321
645.742,1.319
646.009,1.306
646.277,1.294
646.545,1.311
646.812,1.319
647.080,1.330
647.347,1.328
647.615,1.328
647.882,1.325
648.149,1.309
648.417,1.312
648.684,1.316
648.951,1.317
649.219,1.329
649.486,1.327
649.753,1.321
650.020,1.320
650.287,1.314
650.554,1.303
650.821,1.302
651.088,1.303
651.355,1.299
651.622,1.323
651.889,1.321
652.155,1.313
652.422,1.307
652.689,1.315
652.956,1.325
653.222,1.322
653.489,1.333
653.755,1.355
654.022,1.337
654.288,1.315
654.555,1.310
654.821,1.313
655.088,1.325
655.354,1.339
655.620,1.344
655.887,1.351
656.153,1.353
656.419,1.348
656.685,1.337
656.951,1.327
657.217,1.317
657.483,1.313
657.749,1.304
658.015,1.313
658.281,1.314
658.547,1.316
658.813,1.296
659.079,1.297
659.345,1.300
659.610,1.300
659.876,1.304
660.142,1.309
660.407,1.308
660.673,1.312
660.939,1.317
661.204,1.317
661.470,1.305
661.735,1.300
662.000,1.306
662.266,1.311
662.531,1.303
662.796,1.306
663.062,1.309
663.327,1.299
663.592,1.295
663.857,1.311
664.122,1.314
664.388,1.310
664.653,1.313
664.918,1.317
665.183,1.323
665.448,1.318
665.712,1.323
665.977,1.327
666.242,1.328
666.507,1.315
666.772,1.284
667.037,1.282
667.301,1.289
667.566,1.301
667.831,1.302
668.095,1.310
668.360,1.309
668.624,1.311
668.889,1.302
669.153,1.305
669.418,1.297
669.682,1.303
669.946,1.311
670.211,1.315
670.475,1.326
670.739,1.327
671.004,1.334
671.268,1.350
671.532,1.387
671.796,1.388
672.060,1.331
672.324,1.335
672.588,1.347
672.852,1.351
673.116,1.369
673.380,1.417
673.644,1.411
673.908,1.327
674.172,1.322
674.436,1.320
674.700,1.326
674.963,1.324
675.227,1.328
675.491,1.327
675.754,1.315
676.018,1.312
676.282,1.314
676.545,1.315
676.809,1.311
677.072,1.300
677.336,1.297
677.599,1.293
677.863,1.304
678.126,1.303
678.389,1.309
678.653,1.327
678.916,1.326
679.179,1.310
679.442,1.297
679.706,1.306
679.969,1.315
680.232,1.309
680.495,1.317
680.758,1.341
681.021,1.331
681.284,1.313
681.547,1.306
681.810,1.306
682.073,1.320
682.336,1.331
682.599,1.323
682.862,1.317
683.125,1.326
683.388,1.320
683.651,1.322
683.913,1.325
684.176,1.318
684.439,1.307
684.702,1.295
684.964,1.285
685.227,1.279
685.490,1.293
685.752,1.318
686.015,1.330
686.277,1.318
686.540,1.303
686.802,1.290
687.065,1.295
687.327,1.308
687.590,1.316
687.852,1.310
688.115,1.293
688.377,1.285
688.639,1.292
688.902,1.298
689.164,1.300
689.426,1.311
689.689,1.320
689.951,1.316
690.213,1.314
690.475,1.320
690.737,1.318
691.000,1.307
691.262,1.304
691.524,1.311
691.786,1.324
692.048,1.342
692.310,1.347
692.572,1.317
692.834,1.297
693.096,1.290
693.358,1.304
693.620,1.320
693.882,1.331
694.144,1.332
694.406,1.320
694.668,1.312
694.930,1.311
695.192,1.299
695.453,1.296
695.715,1.307
695.977,1.312
696.239,1.304
696.501,1.306
696.762,1.311
697.024,1.316
697.286,1.310
697.548,1.303
697.809,1.311
698.071,1.307
698.333,1.299
698.594,1.303
698.856,1.300
699.118,1.303
699.379,1.305
699.641,1.307
699.902,1.320
700.164,1.322
700.426,1.312
700.687,1.307
700.949,1.308
701.210,1.308
701.472,1.301
701.733,1.293
701.995,1.291
702.256,1.298
702.518,1.298
702.779,1.293
703.041,1.295
703.302,1.320
703.563,1.324
703.825,1.306
704.086,1.310
704.348,1.307
704.609,1.294
704.871,1.300
705.132,1.319
705.393,1.320
705.655,1.300
705.916,1.304
706.177,1.306
706.439,1.300
706.700,1.306
706.961,1.306
707.223,1.308
707.484,1.308
707.745,1.284
708.007,1.279
708.268,1.277
708.529,1.263
708.790,1.251
709.052,1.244
709.313,1.243
709.574,1.258
709.835,1.261
710.097,1.260
710.358,1.248
710.619,1.238
710.881,1.234
711.142,1.235
711.403,1.231
711.664,1.230
711.926,1.234
712.187,1.225
712.448,1.227
712.709,1.232
712.970,1.238
713.232,1.245
713.493,1.251
713.754,1.252
714.015,1.250
714.277,1.258
714.538,1.263
714.799,1.273
715.060,1.283
715.322,1.274
715.583,1.260
715.844,1.252
716.105,1.241
716.367,1.237
716.628,1.246
716.889,1.245
717.150,1.241
717.411,1.234
717.673,1.229
717.934,1.244
718.195,1.250
718.457,1.245
718.718,1.232
718.979,1.222
719.240,1.224
719.502,1.230
719.763,1.237
720.024,1.236
720.286,1.244
720.547,1.248
720.808,1.238
721.069,1.234
721.331,1.238
721.592,1.247
721.853,1.258
722.115,1.254
722.376,1.263
722.638,1.261
722.899,1.252
723.160,1.240
723.422,1.236
723.683,1.235
723.944,1.242
724.206,1.248
724.467,1.241
724.729,1.238
724.990,1.239
725.252,1.247
725.513,1.246
725.775,1.226
726.036,1.219
726.298,1.228
726.559,1.232
726.821,1.239
727.082,1.231
727.344,1.233
727.605,1.239
727.867,1.238
728.128,1.233
728.390,1.240
728.652,1.239
728.913,1.246
729.175,1.260
729.436,1.252
729.698,1.249
729.960,1.254
730.221,1.249
730.483,1.236
730.745,1.229
731.007,1.239
731.268,1.234
731.530,1.231
731.792,1.228
732.054,1.229
732.315,1.238
732.577,1.244
732.839,1.242
733.101,1.229
733.363,1.227
733.625,1.229
733.887,1.232
734.149,1.233
734.411,1.232
734.673,1.241
734.935,1.246
735.197,1.242
735.459,1.242
735.721,1.251
735.983,1.250
736.245,1.240
736.507,1.234
736.769,1.249
737.031,1.250
737.293,1.242
737.555,1.232
737.818,1.224
738.080,1.222
738.342,1.224
738.604,1.222
738.867,1.224
739.129,1.227
739.391,1.224
739.654,1.227
739.916,1.227
740.178,1.232
740.441,1.247
740.703,1.258
740.966,1.250
741.228,1.243
741.491,1.238
741.753,1.231
742.016,1.240
742.278,1.235
742.541,1.235
742.804,1.240
743.066,1.238
743.329,1.242
743.592,1.238
743.854,1.227
744.117,1.233
744.380,1.246
744.643,1.244
744.905,1.232
745.168,1.238
745.431,1.243
745.694,1.236
745.957,1.231
746.220,1.231
746.483,1.225
746.746,1.229
747.009,1.240
747.272,1.254
747.535,1.268
747.798,1.263
748.061,1.253
748.324,1.239
748.588,1.226
748.851,1.227
749.114,1.234
749.377,1.231
749.641,1.236
749.904,1.238
750.167,1.248
750.431,1.253
750.694,1.251
750.958,1.252
751.221,1.248
751.485,1.230
751.748,1.225
752.012,1.236
752.275,1.247
752.539,1.256
752.803,1.249
753.066,1.247
753.330,1.235
753.594,1.236
753.857,1.233
754.121,1.235
754.385,1.245
754.649,1.251
754.913,1.243
755.177,1.253
755.441,1.258
755.705,1.242
755.969,1.222
756.233,1.231
756.497,1.242
756.761,1.244
757.025,1.227
757.289,1.212
757.553,1.221
757.818,1.225
758.082,1.236
758.346,1.241
758.610,1.240
758.875,1.243
759.139,1.242
759.404,1.235
759.668,1.226
759.932,1.223
760.197,1.232
760.462,1.240
760.726,1.242
760.991,1.247
761.255,1.253
761.520,1.251
761.785,1.246
762.049,1.237
762.314,1.223
762.579,1.227
762.844,1.237
763.109,1.243
763.374,1.234
763.639,1.228
763.903,1.232
764.168,1.231
764.433,1.226
764.699,1.239
764.964,1.252
765.229,1.247
765.494,1.239
765.759,1.240
766.024,1.239
766.290,1.234
766.555,1.242
766.820,1.245
767.086,1.246
767.351,1.246
767.616,1.246
767.882,1.237
768.147,1.237
768.413,1.239
768.678,1.233
768.944,1.225
769.209,1.234
769.475,1.238
769.741,1.251
770.006,1.255
770.272,1.253
770.538,1.257
770.804,1.253
771.070,1.252
771.335,1.261
771.601,1.271
771.867,1.269
772.133,1.262
772.399,1.266
772.665,1.253
772.931,1.236
773.197,1.254
773.464,1.270
773.730,1.264
773.996,1.265
774.262,1.263
774.528,1.266
774.795,1.266
775.061,1.267
775.327,1.271
775.594,1.264
775.860,1.251
776.126,1.240
776.393,1.225
776.659,1.221
776.926,1.229
777.193,1.227
777.459,1.238
777.726,1.235
777.992,1.226
778.259,1.228
778.526,1.228
778.793,1.233
779.059,1.241
779.326,1.249
779.593,1.254
779.860,1.252
780.127,1.259
780.394,1.251
780.661,1.242
780.928,1.240
781.195,1.233
781.462,1.235
781.729,1.237
781.996,1.238
782.263,1.237
782.530,1.244
782.797,1.254
783.064,1.246
783.332,1.238
783.599,1.233
783.866,1.231
784.134,1.232
784.401,1.232
784.668,1.232
784.936,1.244
785.203,1.246
785.470,1.227
785.738,1.219
786.005,1.225
786.273,1.224
786.541,1.223
786.808,1.230
787.076,1.231
787.343,1.234
787.611,1.234
787.879,1.239
788.146,1.246
788.414,1.246
788.682,1.261
788.950,1.257
789.217,1.252
789.485,1.258
789.753,1.271
790.021,1.260
790.289,1.235
790.557,1.219
790.825,1.214
791.093,1.229
791.361,1.245
791.629,1.251
791.897,1.249
792.165,1.248
792.433,1.242
792.701,1.236
792.969,1.224
793.237,1.215
793.505,1.221
793.773,1.237
794.042,1.237
794.310,1.227
794.578,1.232
794.846,1.234
795.115,1.223
795.383,1.220
795.651,1.228
795.920,1.242
796.188,1.248
796.456,1.246
796.725,1.257
796.993,1.254
797.261,1.258
797.530,1.255
797.798,1.245
798.067,1.244
798.335,1.253
798.604,1.250
798.872,1.236
799.141,1.230
799.409,1.225
799.678,1.221
799.946,1.231
800.215,1.234
800.483,1.227
800.752,1.227
801.020,1.237
801.289,1.228
801.558,1.230
801.826,1.239
802.095,1.238
802.363,1.226
802.632,1.241
802.901,1.248
803.169,1.246
803.438,1.255
803.707,1.246
803.976,1.234
804.244,1.231
804.513,1.234
804.782,1.231
805.050,1.224
805.319,1.230
805.588,1.239
805.857,1.246
806.125,1.257
806.394,1.249
806.663,1.242
806.931,1.230
807.200,1.226
807.469,1.235
807.738,1.237
808.006,1.227
808.275,1.230
808.544,1.244
808.813,1.251
809.082,1.255
809.350,1.246
809.619,1.240
809.888,1.236
810.157,1.230
810.425,1.234
810.694,1.242
810.963,1.242
811.232,1.249
811.500,1.245
811.769,1.229
812.038,1.219
812.306,1.227
812.575,1.233
812.844,1.236
813.113,1.239
813.381,1.239
813.650,1.228
813.919,1.242
814.187,1.247
814.456,1.248
814.725,1.255
814.993,1.258
815.262,1.248
815.531,1.247
815.799,1.239
816.068,1.228
816.336,1.224
816.605,1.226
816.873,1.240
817.142,1.245
817.411,1.246
817.679,1.250
817.948,1.248
818.216,1.263
818.485,1.279
818.753,1.309
819.021,1.307
819.290,1.246
819.558,1.228
819.827,1.239
820.095,1.244
820.363,1.247
820.632,1.248
820.900,1.242
821.168,1.236
821.437,1.246
821.705,1.250
821.973,1.247
822.241,1.255
822.509,1.256
822.777,1.253
823.046,1.251
823.314,1.247
823.582,1.255
823.850,1.259
824.118,1.258
824.386,1.259
824.654,1.244
824.922,1.219
825.190,1.217
825.457,1.222
825.725,1.234
825.993,1.241
826.261,1.227
826.529,1.220
826.796,1.232
827.064,1.227
827.332,1.224
827.599,1.229
827.867,1.242
828.134,1.252
828.402,1.245
828.669,1.225
828.937,1.229
829.204,1.239
829.471,1.256
829.739,1.265
830.006,1.256
830.273,1.249
830.540,1.245
830.807,1.229
831.075,1.218
831.342,1.228
831.609,1.235
831.876,1.225
832.142,1.239
832.409,1.251
832.676,1.249
832.943,1.242
833.210,1.229
833.476,1.224
833.743,1.229
834.010,1.238
834.276,1.240
834.543,1.228
834.809,1.227
835.076,1.233
835.342,1.231
835.608,1.230
835.874,1.253
836.141,1.250
836.407,1.234
836.673,1.239
836.939,1.229
837.205,1.231
837.471,1.234
837.737,1.234
838.002,1.235
838.268,1.234
838.534,1.227
838.799,1.233
839.065,1.233
839.330,1.240
839.596,1.245
839.861,1.245
840.127,1.250
840.392,1.253
840.657,1.252
840.922,1.256
841.187,1.265
841.452,1.262
841.717,1.252
841.982,1.261
842.247,1.250
842.511,1.231
842.776,1.238
843.041,1.245
843.305,1.239
843.570,1.231
843.834,1.237
844.098,1.232
844.362,1.232
844.627,1.233
844.891,1.223
845.155,1.223
845.419,1.233
845.682,1.231
845.946,1.234
846.210,1.241
846.474,1.245
846.737,1.242
847.001,1.251
847.264,1.236
847.527,1.214
847.790,1.227
848.054,1.233
848.317,1.225
848.580,1.223
848.843,1.222
849.105,1.232
849.368,1.248
849.631,1.258
849.893,1.245
850.156,1.260
850.418,1.269
850.680,1.244
850.943,1.222
851.205,1.232
851.467,1.246
851.729,1.235
851.991,1.234
852.252,1.240
852.514,1.250
852.776,1.261
853.037,1.258
853.298,1.265
853.560,1.259
853.821,1.234
854.082,1.219
854.343,1.213
854.604,1.226
854.865,1.259
855.126,1.277
855.386,1.272
855.647,1.275
855.907,1.268
856.168,1.257
856.428,1.248
856.688,1.239
856.948,1.237
857.208,1.221
857.468,1.223
857.727,1.236
857.987,1.244
858.247,1.241
858.506,1.251
858.765,1.263
859.024,1.244
859.284,1.229
859.543,1.225
859.801,1.218
860.060,1.223
860.319,1.238
860.577,1.252
860.836,1.254
861.094,1.252
861.352,1.258
861.611,1.254
861.869,1.236
862.127,1.229
862.384,1.234
862.642,1.245
862.900,1.247
863.157,1.264
863.414,1.263
863.672,1.241
863.929,1.229
864.186,1.222
864.443,1.231
864.699,1.239
864.956,1.232
865.212,1.227
865.469,1.217
865.725,1.227
865.981,1.251
866.237,1.251
866.493,1.253
866.749,1.249
867.005,1.227
867.260,1.232
867.516,1.224
867.771,1.215
868.026,1.213
868.282,1.225
868.536,1.239
868.791,1.238
869.046,1.231
869.301,1.229
869.555,1.226
869.809,1.236
870.064,1.251
870.318,1.246
870.572,1.249
870.826,1.246
871.079,1.219
871.333,1.232
871.586,1.242
871.840,1.240
872.093,1.237
872.346,1.243
872.599,1.248
872.852,1.271
873.105,1.277
873.357,1.265
873.610,1.248
873.862,1.247
874.114,1.261
874.366,1.259
874.618,1.254
874.870,1.240
875.121,1.223
875.373,1.225
875.624,1.234
875.876,1.232
876.127,1.229
876.378,1.231
876.629,1.224
876.879,1.229
877.130,1.241
877.381,1.242
877.631,1.234
877.881,1.232
878.131,1.235
878.381,1.242
878.631,1.264
878.881,1.267
879.130,1.256
879.380,1.250
879.629,1.240
879.878,1.239
880.127,1.233
880.376,1.231
880.625,1.241
880.873,1.251
881.122,1.254
881.370,1.249
881.618,1.248
881.866,1.243
882.114,1.239
882.362,1.242
882.610,1.244
882.857,1.252
883.105,1.250
883.352,1.241
883.599,1.229
883.846,1.233
884.093,1.230
884.340,1.222
884.586,1.233
884.833,1.239
885.079,1.231
885.325,1.242
885.571,1.239
885.817,1.240
886.063,1.247
886.309,1.254
886.554,1.243
886.800,1.254
887.045,1.263
887.290,1.254
887.535,1.243
887.780,1.237
888.025,1.240
888.270,1.252
888.514,1.270
888.758,1.270
889.003,1.253
889.247,1.247
889.491,1.226
889.735,1.252
889.978,1.257
890.222,1.244
890.465,1.243
890.709,1.242
890.952,1.235
891.195,1.233
891.438,1.226
891.681,1.227
891.923,1.219
892.166,1.234
892.408,1.240
892.651,1.227
892.893,1.220
893.135,1.220
893.377,1.221
893.619,1.228
893.861,1.232
894.102,1.237
894.344,1.242
894.585,1.263
894.826,1.279
895.067,1.279
895.308,1.266
895.549,1.257
895.790,1.243
896.031,1.236
896.271,1.236
896.512,1.248
896.752,1.258
896.992,1.253
897.232,1.241
897.472,1.237
897.712,1.242
897.952,1.256
898.191,1.258
898.431,1.251
898.670,1.250
898.910,1.268
899.149,1.266
899.388,1.273
899.627,1.267
899.866,1.252
900.105,1.247
900.343,1.240
900.582,1.242
900.820,1.251
901.059,1.259
901.297,1.268
901.535,1.261
901.773,1.230
902.011,1.223
902.249,1.233
902.487,1.223
902.725,1.231
902.963,1.234
903.200,1.234
903.438,1.231
903.675,1.237
903.912,1.245
904.150,1.250
904.387,1.262
904.624,1.243
904.861,1.219
905.098,1.223
905.334,1.228
905.571,1.232
905.808,1.224
906.045,1.229
906.281,1.240
906.518,1.248
906.754,1.244
906.990,1.257
907.227,1.253
907.463,1.241
907.699,1.235
907.935,1.243
908.171,1.251
908.407,1.257
908.643,1.245
908.879,1.242
909.115,1.253
909.350,1.265
909.586,1.257
909.822,1.253
910.057,1.254
910.293,1.271
910.528,1.285
910.764,1.275
910.999,1.267
911.235,1.269
911.470,1.254
911.706,1.262
911.941,1.261
912.176,1.251
912.412,1.243
912.647,1.242
912.882,1.251
913.117,1.251
913.352,1.239
913.588,1.237
913.823,1.236
914.058,1.231
914.293,1.230
914.528,1.239
914.763,1.229
914.999,1.228
915.234,1.233
915.469,1.233
915.704,1.240
915.939,1.243
916.174,1.233
916.409,1.227
916.645,1.233
916.880,1.246
917.115,1.248
917.350,1.254
917.586,1.246
917.821,1.246
918.056,1.251
918.292,1.265
918.527,1.263
918.763,1.245
918.998,1.242
919.234,1.250
919.469,1.268
919.705,1.278
919.940,1.271
920.176,1.257
920.412,1.254
920.648,1.270
920.884,1.256
921.120,1.247
921.356,1.246
921.592,1.248
921.828,1.243
922.065,1.244
922.301,1.252
922.537,1.263
922.774,1.269
923.011,1.263
923.247,1.248
923.484,1.250
923.721,1.262
923.958,1.265
924.195,1.256
924.433,1.247
924.670,1.246
924.908,1.231
925.145,1.229
925.383,1.244
925.621,1.244
925.859,1.246
926.097,1.251
926.335,1.252
926.574,1.247
926.813,1.256
927.051,1.258
927.290,1.254
927.529,1.252
927.769,1.271
928.008,1.279
928.248,1.258
928.487,1.230
928.727,1.229
928.967,1.244
929.208,1.258
929.448,1.253
929.689,1.252
929.930,1.244
930.171,1.236
930.413,1.236
930.654,1.243
930.896,1.241
931.138,1.230
931.380,1.227
931.623,1.226
931.865,1.241
932.108,1.248
932.352,1.250
932.595,1.249
932.839,1.256
933.083,1.255
933.327,1.242
933.571,1.235
933.816,1.230
934.061,1.239
934.307,1.245
934.552,1.229
934.798,1.228
935.045,1.240
935.291,1.242
935.538,1.238
935.785,1.246
936.033,1.257
936.281,1.254
936.529,1.259
936.777,1.251
937.026,1.245
937.275,1.243
937.525,1.239
937.775,1.221
938.025,1.224
938.276,1.222
938.527,1.224
938.778,1.234
939.030,1.228
939.282,1.222
939.535,1.236
939.788,1.246
940.041,1.250
940.295,1.242
940.550,1.235
940.804,1.240
941.059,1.251
941.315,1.254
941.571,1.233
941.828,1.226
942.085,1.230
942.342,1.227
942.600,1.237
942.858,1.237
943.117,1.229
943.377,1.225
943.636,1.218
943.897,1.213
944.158,1.223
944.419,1.234
944.681,1.239
944.944,1.231
945.207,1.238
945.470,1.239
945.734,1.250
945.999,1.250
946.264,1.261
946.530,1.269
946.797,1.266
947.064,1.261
947.331,1.259
947.600,1.253
947.869,1.238
948.138,1.233
948.408,1.230
948.679,1.226
948.950,1.239
949.222,1.242
949.495,1.225
949.768,1.233
950.043,1.244
