Intensity B5.1,,C:\Users\Brend\Desktop\LED Spectras v2\Blinds\-Interference\Spectrometer Data.sp,,,B5.1,
1.557,,2018-07-11 15:22:45,,Integration Time,100 ms,
1.533,,Analyze Light,,Number of Scans to Average,25,
1.527,,,,Smoothing,0,
1.540
1.560
1.567
1.578
1.578
1.577
1.580
1.586
1.588
1.589
1.600
1.607
1.605
1.585
1.590
1.601
1.619
1.625
1.635
1.638
1.633
1.642
1.646
1.642
1.646
1.650
1.665
1.679
1.683
1.683
1.678
1.671
1.671
1.668
1.674
1.679
1.687
1.689
1.688
1.690
1.705
1.708
1.708
1.719
1.729
1.737
1.750
1.760
1.748
1.744
1.749
1.748
1.747
1.751
1.760
1.771
1.782
1.790
1.795
1.797
1.805
1.796
1.797
1.803
1.804
1.810
1.829
1.836
1.840
1.837
1.851
1.859
1.874
1.883
1.879
1.872
1.871
1.869
1.865
1.874
1.869
1.872
1.890
1.914
1.926
1.911
1.916
1.907
1.896
1.882
1.891
1.901
1.905
1.913
1.926
1.936
1.956
1.957
1.948
1.944
1.950
1.956
1.956
1.957
1.977
1.980
1.987
1.993
1.990
1.984
1.985
2.002
1.995
1.987
1.999
2.013
2.028
2.026
2.025
2.019
2.047
2.054
2.046
2.043
2.048
2.049
2.061
2.075
2.089
2.085
2.082
2.089
2.089
2.087
2.095
2.089
2.097
2.096
2.107
2.117
2.121
2.118
2.118
2.113
2.106
2.113
2.122
2.129
2.126
2.122
2.126
2.124
2.133
2.134
2.143
2.139
2.139
2.153
2.149
2.153
2.167
2.161
2.158
2.151
2.157
2.139
2.146
2.154
2.165
2.155
2.166
2.169
2.160
2.166
2.180
2.184
2.191
2.178
2.178
2.169
2.203
2.210
2.233
2.244
2.236
2.237
2.234
2.249
2.273
2.280
2.286
2.298
2.330
2.337
2.368
2.401
2.432
2.458
2.492
2.514
2.544
2.585
2.621
2.659
2.703
2.749
2.808
2.860
2.952
3.029
3.111
3.175
3.254
3.315
3.400
3.500
3.598
3.699
3.835
3.952
4.094
4.198
4.343
4.463
4.628
4.792
4.952
5.108
5.305
5.491
5.697
5.916
6.153
6.388
6.609
6.842
7.101
7.326
7.599
7.883
8.183
8.477
8.814
9.149
9.504
9.838
10.210
10.575
10.964
11.355
11.786
12.200
12.674
13.105
13.584
14.096
14.666
15.225
15.819
16.403
17.045
17.702
18.367
19.075
19.826
20.618
21.446
22.318
23.207
24.169
25.183
26.187
27.294
28.404
29.519
30.726
32.015
33.372
34.718
36.115
37.552
38.959
40.447
41.963
43.535
45.170
46.819
48.469
50.122
51.759
53.424
55.040
56.652
58.230
59.775
61.242
62.644
63.893
65.105
66.221
67.210
68.097
68.876
69.518
70.069
70.480
70.760
70.867
70.818
70.698
70.417
69.979
69.432
68.827
68.073
67.217
66.270
65.223
64.093
62.870
61.496
60.071
58.586
57.090
55.648
54.213
52.797
51.347
49.908
48.506
47.104
45.747
44.439
43.163
41.940
40.828
39.707
38.670
37.727
36.796
35.954
35.165
34.436
33.719
33.069
32.434
31.848
31.281
30.731
30.226
29.740
29.233
28.782
28.309
27.840
27.347
26.891
26.431
25.989
25.560
25.143
24.713
24.295
23.850
23.377
22.913
22.474
21.996
21.515
21.056
20.595
20.099
19.610
19.115
18.614
18.115
17.624
17.115
16.674
16.206
15.767
15.280
14.830
14.391
13.961
13.506
13.110
12.731
12.367
11.996
11.640
11.281
10.979
10.644
10.361
10.076
9.817
9.530
9.262
8.989
8.761
8.519
8.316
8.113
7.956
7.736
7.534
7.342
7.185
7.002
6.829
6.663
6.541
6.384
6.265
6.102
5.951
5.804
5.675
5.499
5.383
5.249
5.151
5.029
4.918
4.803
4.681
4.536
4.419
4.291
4.196
4.074
3.982
3.865
3.766
3.668
3.563
3.454
3.383
3.303
3.227
3.131
3.040
2.957
2.901
2.819
2.751
2.712
2.660
2.576
2.497
2.435
2.397
2.354
2.315
2.279
2.250
2.201
2.167
2.133
2.084
2.049
2.027
1.999
1.997
1.964
1.938
1.910
1.908
1.885
1.854
1.826
1.819
1.795
1.774
1.770
1.776
1.756
1.739
1.718
1.705
1.687
1.663
1.641
1.629
1.623
1.617
1.616
1.610
1.604
1.595
1.577
1.562
1.537
1.508
1.507
1.516
1.529
1.534
1.523
1.508
1.490
1.478
1.478
1.479
1.460
1.458
1.460
1.446
1.425
1.428
1.427
1.435
1.433
1.421
1.406
1.394
1.390
1.394
1.387
1.388
1.379
1.368
1.365
1.368
1.372
1.375
1.370
1.364
1.352
1.346
1.360
1.359
1.348
1.348
1.339
1.346
1.341
1.329
1.326
1.331
1.325
1.311
1.300
1.320
1.317
1.306
1.304
1.310
1.307
1.304
1.308
1.308
1.310
1.309
1.304
1.298
1.305
1.312
1.296
1.278
1.275
1.279
1.279
1.281
1.287
1.277
1.279
1.284
1.285
1.275
1.271
1.274
1.275
1.279
1.276
1.273
1.262
1.263
1.265
1.274
1.292
1.291
1.282
1.275
1.270
1.258
1.250
1.243
1.244
1.254
1.260
1.260
1.254
1.243
1.246
1.249
1.258
1.254
1.244
1.247
1.242
1.243
1.246
1.251
1.261
1.266
1.265
1.259
1.245
1.237
1.234
1.242
1.253
1.254
1.257
1.254
1.248
1.253
1.259
1.239
1.223
1.233
1.241
1.242
1.245
1.251
1.246
1.247
1.245
1.239
1.235
1.241
1.250
1.254
1.258
1.258
1.260
1.253
1.253
1.242
1.222
1.235
1.243
1.242
1.238
1.240
1.228
1.230
1.235
1.222
1.227
1.239
1.244
1.254
1.248
1.234
1.224
1.213
1.215
1.224
1.227
1.235
1.256
1.264
1.253
1.242
1.231
1.228
1.234
1.245
1.245
1.242
1.240
1.244
1.252
1.254
1.248
1.242
1.225
1.225
1.234
1.234
1.233
1.224
1.223
1.219
1.213
1.219
1.217
1.226
1.224
1.228
1.219
1.219
1.231
1.228
1.218
1.217
1.219
1.228
1.237
1.242
1.242
1.253
1.253
1.241
1.237
1.234
1.230
1.220
1.224
1.241
1.244
1.230
1.220
1.232
1.242
1.231
1.224
1.223
1.219
1.217
1.229
1.242
1.242
1.230
1.230
1.228
1.225
1.219
1.203
1.208
1.213
1.215
1.222
1.225
1.225
1.228
1.210
1.201
1.206
1.221
1.224
1.214
1.205
1.198
1.205
1.219
1.232
1.227
1.214
1.205
1.209
1.216
1.213
1.226
1.232
1.232
1.228
1.220
1.202
1.198
1.205
1.205
1.209
1.222
1.235
1.236
1.223
1.210
1.207
1.213
1.213
1.207
1.193
1.197
1.191
1.195
1.197
1.199
1.209
1.216
1.211
1.210
1.208
1.209
1.208
1.200
1.200
1.214
1.226
1.236
1.232
1.230
1.222
1.207
1.208
1.214
1.221
1.223
1.215
1.206
1.200
1.199
1.196
1.198
1.211
1.215
1.224
1.228
1.220
1.212
1.203
1.188
1.191
1.203
1.209
1.210
1.207
1.213
1.202
1.209
1.216
1.211
1.207
1.203
1.212
1.218
1.215
1.209
1.200
1.205
1.205
1.196
1.187
1.200
1.201
1.210
1.219
1.215
1.206
1.187
1.185
1.185
1.173
1.178
1.189
1.188
1.176
1.183
1.190
1.180
1.187
1.197
1.208
1.211
1.210
1.211
1.202
1.207
1.214
1.218
1.226
1.230
1.224
1.205
1.206
1.205
1.203
1.211
1.216
1.212
1.213
1.212
1.211
1.212
1.211
1.207
1.201
1.200
1.194
1.192
1.195
1.200
1.202
1.197
1.190
1.189
1.196
1.197
1.194
1.201
1.205
1.204
1.203
1.193
1.190
1.201
1.212
1.210
1.201
1.200
1.201
1.193
1.185
1.189
1.189
1.195
1.204
1.208
1.222
1.224
1.200
1.200
1.213
1.212
1.199
1.202
1.218
1.214
1.196
1.197
1.195
1.206
1.217
1.220
1.208
1.212
1.207
1.193
1.194
1.213
1.209
1.199
1.202
1.211
1.208
1.197
1.189
1.197
1.200
1.199
1.197
1.200
1.202
1.203
1.197
1.197
1.206
1.215
1.203
1.185
1.173
1.176
1.172
1.162
1.162
1.179
1.194
1.201
1.205
1.207
1.201
1.184
1.179
1.181
1.192
1.199
1.206
1.213
1.202
1.195
1.189
1.190
1.183
1.187
1.200
1.199
1.200
1.208
1.196
1.191
1.189
1.187
1.195
1.204
1.217
1.214
1.205
1.200
1.192
1.200
1.198
1.192
1.197
1.197
1.191
1.179
1.186
1.189
1.175
1.176
1.185
1.185
1.187
1.195
1.189
1.192
1.198
1.198
1.198
1.184
1.187
1.193
1.201
1.201
1.192
1.191
1.177
1.175
1.187
1.187
1.193
1.194
1.182
1.179
1.177
1.174
1.176
1.174
1.181
1.195
1.189
1.184
1.181
1.187
1.191
1.197
1.212
1.227
1.213
1.194
1.189
1.193
1.193
1.200
1.207
1.210
1.204
1.208
1.204
1.199
1.200
1.199
1.187
1.187
1.190
1.189
1.181
1.178
1.172
1.173
1.179
1.180
1.170
1.170
1.185
1.190
1.185
1.182
1.182
1.188
1.186
1.184
1.188
1.179
1.172
1.179
1.177
1.171
1.172
1.179
1.175
1.181
1.190
1.188
1.194
1.184
1.158
1.166
1.167
1.170
1.174
1.182
1.187
1.185
1.178
1.176
1.168
1.170
1.181
1.191
1.195
1.191
1.199
1.216
1.245
1.250
1.208
1.205
1.208
1.213
1.230
1.278
1.268
1.201
1.195
1.190
1.190
1.190
1.190
1.190
1.179
1.177
1.178
1.188
1.180
1.180
1.181
1.189
1.187
1.184
1.201
1.211
1.200
1.187
1.173
1.179
1.186
1.180
1.194
1.210
1.209
1.195
1.185
1.177
1.188
1.200
1.191
1.189
1.190
1.192
1.193
1.194
1.184
1.170
1.164
1.162
1.160
1.168
1.192
1.198
1.191
1.184
1.171
1.170
1.180
1.185
1.180
1.169
1.161
1.158
1.158
1.164
1.173
1.189
1.188
1.185
1.190
1.189
1.179
1.175
1.175
1.187
1.201
1.201
1.184
1.167
1.166
1.164
1.177
1.186
1.186
1.188
1.182
1.184
1.185
1.180
1.179
1.181
1.174
1.167
1.168
1.175
1.173
1.169
1.176
1.174
1.170
1.174
1.179
1.183
1.181
1.182
1.185
1.187
1.180
1.178
1.170
1.172
1.173
1.166
1.166
1.172
1.172
1.164
1.172
1.190
1.189
1.173
1.171
1.179
1.174
1.179
1.191
1.185
1.176
1.182
1.184
1.181
1.183
1.176
1.169
1.164
1.137
1.132
1.134
1.117
1.108
1.092
1.097
1.111
1.112
1.106
1.094
1.090
1.084
1.082
1.073
1.073
1.074
1.069
1.077
1.090
1.090
1.091
1.094
1.099
1.101
1.104
1.115
1.119
1.120
1.116
1.105
1.104
1.097
1.095
1.091
1.087
1.084
1.078
1.076
1.083
1.097
1.091
1.074
1.069
1.076
1.090
1.092
1.096
1.100
1.095
1.088
1.085
1.089
1.099
1.102
1.098
1.102
1.105
1.101
1.098
1.086
1.084
1.090
1.091
1.083
1.080
1.094
1.103
1.100
1.080
1.076
1.083
1.083
1.079
1.075
1.076
1.080
1.084
1.078
1.081
1.084
1.103
1.112
1.110
1.114
1.113
1.103
1.092
1.081
1.084
1.082
1.080
1.080
1.080
1.081
1.091
1.100
1.092
1.093
1.083
1.087
1.084
1.083
1.087
1.089
1.088
1.092
1.101
1.103
1.089
1.082
1.093
1.092
1.091
1.077
1.070
1.075
1.074
1.078
1.081
1.081
1.077
1.078
1.077
1.077
1.092
1.096
1.089
1.087
1.088
1.080
1.089
1.087
1.083
1.090
1.094
1.093
1.085
1.075
1.088
1.098
1.091
1.079
1.088
1.083
1.075
1.074
1.074
1.073
1.074
1.077
1.096
1.108
1.105
1.091
1.081
1.074
1.081
1.089
1.087
1.088
1.089
1.089
1.095
1.097
1.101
1.099
1.088
1.078
1.079
1.095
1.104
1.095
1.083
1.077
1.079
1.080
1.080
1.092
1.094
1.089
1.098
1.098
1.085
1.078
1.080
1.089
1.084
1.077
1.079
1.077
1.078
1.088
1.092
1.087
1.088
1.097
1.095
1.094
1.098
1.108
1.111
1.105
1.103
1.107
1.102
1.098
1.080
1.064
1.069
1.081
1.094
1.091
1.086
1.082
1.081
1.087
1.090
1.101
1.095
1.085
1.076
1.074
1.082
1.094
1.091
1.089
1.096
1.092
1.085
1.094
1.092
1.083
1.084
1.088
1.087
1.090
1.102
1.101
1.103
1.105
1.098
1.103
1.112
1.116
1.113
1.105
1.091
1.088
1.099
1.101
1.108
1.111
1.107
1.107
1.109
1.111
1.120
1.112
1.095
1.087
1.075
1.074
1.079
1.083
1.091
1.089
1.077
1.081
1.082
1.086
1.090
1.092
1.095
1.097
1.101
1.087
1.090
1.090
1.082
1.083
1.081
1.082
1.080
1.092
1.102
1.094
1.080
1.076
1.075
1.068
1.062
1.072
1.079
1.088
1.086
1.083
1.080
1.074
1.070
1.070
1.073
1.074
1.081
1.093
1.097
1.096
1.106
1.089
1.086
1.098
1.109
1.102
1.080
1.074
1.069
1.071
1.088
1.097
1.106
1.099
1.091
1.077
1.068
1.064
1.072
1.088
1.088
1.079
1.080
1.084
1.081
1.080
1.084
1.091
1.083
1.083
1.088
1.092
1.108
1.109
1.095
1.093
1.109
1.106
1.090
1.076
1.077
1.076
1.084
1.092
1.091
1.089
1.088
1.075
1.081
1.092
1.085
1.074
1.077
1.077
1.081
1.085
1.080
1.066
1.070
1.074
1.075
1.068
1.073
1.081
1.087
1.097
1.092
1.086
1.075
1.077
1.082
1.087
1.080
1.082
1.095
1.104
1.102
1.094
1.093
1.095
1.076
1.071
1.082
1.083
1.085
1.081
1.073
1.072
1.084
1.091
1.094
1.092
1.084
1.078
1.093
1.103
1.100
1.098
1.096
1.087
1.096
1.094
1.092
1.085
1.078
1.079
1.091
1.092
1.097
1.105
1.115
1.125
1.152
1.136
1.088
1.075
1.091
1.087
1.087
1.091
1.085
1.078
1.095
1.095
1.098
1.108
1.104
1.102
1.093
1.091
1.097
1.099
1.096
1.100
1.099
1.079
1.077
1.075
1.083
1.087
1.084
1.085
1.098
1.094
1.093
1.094
1.104
1.108
1.093
1.075
1.076
1.081
1.097
1.105
1.096
1.089
1.085
1.078
1.070
1.084
1.090
1.084
1.093
1.094
1.091
1.088
1.076
1.073
1.077
1.082
1.080
1.068
1.072
1.080
1.082
1.080
1.095
1.088
1.082
1.079
1.071
1.074
1.075
1.071
1.075
1.078
1.083
1.090
1.089
1.088
1.094
1.093
1.100
1.098
1.095
1.104
1.111
1.103
1.105
1.108
1.092
1.089
1.091
1.095
1.092
1.089
1.088
1.079
1.082
1.079
1.075
1.075
1.086
1.097
1.094
1.091
1.090
1.089
1.102
1.090
1.073
1.078
1.080
1.076
1.078
1.081
1.080
1.107
1.111
1.099
1.107
1.116
1.100
1.086
1.097
1.092
1.083
1.087
1.095
1.105
1.102
1.098
1.104
1.095
1.079
1.075
1.072
1.087
1.109
1.116
1.114
1.120
1.116
1.103
1.097
1.086
1.081
1.068
1.072
1.078
1.084
1.082
1.098
1.108
1.094
1.079
1.078
1.077
1.081
1.089
1.100
1.102
1.109
1.101
1.088
1.076
1.074
1.075
1.084
1.088
1.111
1.104
1.085
1.074
1.067
1.069
1.080
1.083
1.081
1.077
1.083
1.097
1.096
1.096
1.092
1.085
1.084
1.078
1.076
1.079
1.090
1.108
1.105
1.090
1.084
1.078
1.090
1.093
1.094
1.101
1.097
1.074
1.074
1.076
1.080
1.082
1.094
1.102
1.115
1.118
1.113
1.102
1.098
1.102
1.101
1.101
1.092
1.075
1.069
1.077
1.084
1.085
1.085
1.086
1.083
1.085
1.082
1.073
1.070
1.074
1.088
1.100
1.108
1.103
1.099
1.094
1.087
1.077
1.079
1.084
1.104
1.103
1.095
1.088
1.083
1.083
1.080
1.085
1.089
1.092
1.084
1.074
1.073
1.064
1.067
1.086
1.099
1.100
1.102
1.099
1.092
1.091
1.094
1.094
1.107
1.110
1.100
1.084
1.071
1.088
1.103
1.111
1.112
1.115
1.106
1.086
1.101
1.111
1.111
1.105
1.100
1.094
1.090
1.087
1.085
1.075
1.088
1.088
1.082
1.077
1.069
1.072
1.075
1.088
1.094
1.099
1.112
1.122
1.116
1.095
1.090
1.086
1.078
1.074
1.087
1.102
1.102
1.090
1.081
1.083
1.103
1.114
1.103
1.104
1.112
1.109
1.121
1.121
1.113
1.104
1.098
1.096
1.109
1.107
1.114
1.113
1.084
1.078
1.077
1.071
1.078
1.085
1.083
1.080
1.088
1.090
1.097
1.111
1.100
1.080
1.085
1.087
1.087
1.074
1.074
1.092
1.095
1.091
1.102
1.100
1.093
1.083
1.094
1.103
1.099
1.096
1.097
1.099
1.102
1.097
1.093
1.097
1.110
1.128
1.116
1.108
1.118
1.116
1.119
1.115
1.107
1.101
1.097
1.098
1.100
1.101
1.096
1.095
1.097
1.100
1.096
1.078
1.072
1.075
1.076
1.081
1.080
1.069
1.070
1.085
1.092
1.097
1.097
1.088
1.093
1.096
1.107
1.105
1.092
1.086
1.090
1.107
1.107
1.101
1.103
1.105
1.109
1.104
1.098
1.090
1.093
1.094
1.095
1.097
1.103
1.108
1.097
1.084
1.091
1.105
1.107
1.099
1.096
1.090
1.077
1.076
1.098
1.098
1.095
1.103
1.098
1.089
1.094
1.103
1.100
1.102
1.120
1.122
1.107
1.084
1.087
1.101
1.108
1.103
1.095
1.084
1.073
1.075
1.092
1.084
1.072
1.070
1.075
1.090
1.101
1.103
1.095
1.100
1.098
1.091
1.085
1.085
1.093
1.100
1.086
1.081
1.087
1.096
1.091
1.096
1.101
1.110
1.120
1.119
1.105
1.096
1.092
1.079
1.079
1.074
1.072
1.078
1.077
1.073
1.075
1.085
1.084
1.074
1.075
1.089
1.103
1.092
1.078
1.087
1.084
1.087
1.088
1.082
1.079
1.081
1.079
1.076
1.076
1.081
1.084
1.089
1.096
1.096
1.099
1.098
1.104
1.114
1.108
1.105
1.109
1.103
1.082
1.080
1.085
1.084
1.096
1.094
1.082
1.083
1.093
