Intensity BB4.2,,C:\Users\Brend\Desktop\LED Spectras v2\Blinds\-Interference\Spectrometer Data.sp,,,BB4.2,
1.673,,2018-07-11 15:25:28,,Integration Time,100 ms,
1.665,,Analyze Light,,Number of Scans to Average,25,
1.655,,,,Smoothing,0,
1.677
1.695
1.695
1.705
1.708
1.697
1.704
1.713
1.707
1.716
1.730
1.743
1.741
1.712
1.710
1.716
1.733
1.747
1.761
1.764
1.760
1.761
1.773
1.773
1.773
1.777
1.802
1.817
1.822
1.822
1.816
1.797
1.798
1.804
1.798
1.804
1.800
1.806
1.810
1.804
1.825
1.831
1.828
1.833
1.842
1.844
1.848
1.858
1.846
1.861
1.873
1.876
1.867
1.861
1.875
1.890
1.895
1.901
1.903
1.915
1.922
1.916
1.923
1.923
1.932
1.928
1.940
1.944
1.952
1.947
1.960
1.968
1.985
1.999
1.995
1.988
1.974
1.978
1.982
1.986
1.970
1.973
2.008
2.027
2.044
2.033
2.021
2.013
2.009
2.006
2.016
2.022
2.020
2.040
2.055
2.049
2.059
2.055
2.058
2.064
2.072
2.065
2.065
2.075
2.105
2.109
2.103
2.114
2.123
2.113
2.103
2.097
2.097
2.088
2.096
2.112
2.124
2.131
2.133
2.119
2.146
2.160
2.142
2.143
2.168
2.168
2.181
2.184
2.194
2.190
2.195
2.205
2.214
2.199
2.202
2.201
2.213
2.204
2.216
2.212
2.211
2.212
2.231
2.211
2.203
2.206
2.216
2.219
2.226
2.211
2.220
2.231
2.242
2.238
2.239
2.227
2.229
2.236
2.235
2.247
2.253
2.241
2.232
2.224
2.235
2.226
2.248
2.254
2.256
2.256
2.270
2.268
2.261
2.265
2.268
2.261
2.267
2.263
2.274
2.280
2.306
2.316
2.349
2.357
2.343
2.345
2.350
2.367
2.402
2.421
2.436
2.453
2.495
2.505
2.529
2.572
2.604
2.626
2.660
2.680
2.715
2.770
2.814
2.858
2.917
2.968
3.048
3.106
3.200
3.291
3.379
3.447
3.541
3.620
3.720
3.822
3.929
4.020
4.173
4.281
4.425
4.553
4.708
4.850
5.020
5.188
5.358
5.519
5.714
5.921
6.143
6.377
6.594
6.803
7.026
7.260
7.531
7.778
8.061
8.343
8.644
8.944
9.282
9.626
9.979
10.317
10.684
11.071
11.476
11.880
12.319
12.801
13.294
13.782
14.340
14.882
15.483
16.110
16.733
17.412
18.091
18.811
19.576
20.404
21.260
22.137
23.045
24.011
25.043
26.072
27.162
28.274
29.392
30.562
31.766
33.034
34.340
35.684
37.064
38.451
39.823
41.174
42.569
43.928
45.329
46.739
48.183
49.583
50.935
52.210
53.485
54.683
55.835
56.958
58.025
58.971
59.826
60.553
61.230
61.788
62.223
62.600
62.824
62.940
63.000
62.927
62.739
62.444
62.055
61.560
60.962
60.263
59.514
58.712
57.868
56.970
55.996
54.964
53.882
52.768
51.618
50.427
49.295
48.157
47.029
45.898
44.819
43.735
42.697
41.669
40.686
39.727
38.800
37.910
37.038
36.222
35.467
34.759
34.069
33.435
32.783
32.196
31.630
31.065
30.573
30.073
29.521
29.024
28.560
28.079
27.667
27.233
26.770
26.284
25.828
25.364
24.883
24.432
23.998
23.533
23.085
22.669
22.242
21.790
21.361
20.939
20.505
20.027
19.597
19.141
18.667
18.225
17.831
17.379
16.920
16.470
16.069
15.659
15.284
14.884
14.508
14.089
13.695
13.330
12.982
12.635
12.279
11.958
11.661
11.347
11.056
10.734
10.479
10.211
9.983
9.743
9.519
9.252
9.025
8.788
8.573
8.367
8.181
7.987
7.836
7.635
7.443
7.254
7.094
6.921
6.779
6.627
6.503
6.358
6.211
6.036
5.898
5.753
5.620
5.439
5.326
5.198
5.105
4.992
4.891
4.771
4.654
4.513
4.414
4.291
4.193
4.065
3.979
3.861
3.764
3.670
3.589
3.501
3.448
3.364
3.286
3.210
3.137
3.042
2.995
2.909
2.846
2.796
2.757
2.682
2.613
2.565
2.528
2.487
2.460
2.421
2.386
2.337
2.301
2.272
2.234
2.200
2.191
2.166
2.161
2.132
2.093
2.066
2.073
2.053
2.013
1.988
1.977
1.951
1.928
1.929
1.930
1.903
1.881
1.855
1.849
1.829
1.813
1.797
1.776
1.771
1.769
1.765
1.759
1.747
1.738
1.724
1.714
1.697
1.676
1.671
1.675
1.691
1.691
1.680
1.671
1.651
1.647
1.650
1.661
1.642
1.621
1.621
1.615
1.597
1.594
1.586
1.588
1.593
1.596
1.562
1.556
1.567
1.573
1.559
1.554
1.544
1.540
1.537
1.529
1.534
1.538
1.532
1.528
1.512
1.503
1.511
1.511
1.499
1.499
1.490
1.492
1.490
1.478
1.470
1.474
1.474
1.465
1.449
1.461
1.454
1.439
1.430
1.436
1.434
1.441
1.443
1.448
1.457
1.455
1.452
1.443
1.445
1.448
1.440
1.427
1.421
1.420
1.416
1.417
1.424
1.416
1.427
1.442
1.436
1.422
1.406
1.401
1.400
1.412
1.414
1.406
1.397
1.401
1.402
1.405
1.425
1.432
1.419
1.414
1.413
1.391
1.380
1.380
1.386
1.403
1.411
1.399
1.390
1.376
1.375
1.388
1.389
1.384
1.376
1.377
1.368
1.376
1.382
1.382
1.407
1.415
1.411
1.412
1.392
1.372
1.368
1.379
1.381
1.380
1.385
1.378
1.383
1.391
1.388
1.377
1.360
1.372
1.381
1.391
1.390
1.382
1.373
1.374
1.379
1.382
1.368
1.367
1.373
1.383
1.393
1.390
1.393
1.392
1.385
1.380
1.354
1.368
1.382
1.379
1.360
1.361
1.359
1.361
1.361
1.348
1.359
1.381
1.393
1.401
1.388
1.382
1.373
1.349
1.356
1.364
1.356
1.369
1.398
1.407
1.401
1.384
1.366
1.368
1.365
1.373
1.377
1.376
1.385
1.392
1.391
1.387
1.386
1.384
1.376
1.380
1.370
1.368
1.368
1.359
1.365
1.362
1.355
1.361
1.352
1.366
1.368
1.372
1.357
1.353
1.360
1.360
1.360
1.358
1.360
1.368
1.374
1.372
1.381
1.388
1.384
1.374
1.377
1.384
1.370
1.353
1.352
1.372
1.381
1.368
1.355
1.366
1.373
1.366
1.350
1.353
1.352
1.354
1.370
1.391
1.378
1.372
1.375
1.369
1.367
1.361
1.347
1.350
1.350
1.354
1.360
1.364
1.370
1.368
1.353
1.339
1.343
1.355
1.352
1.340
1.336
1.325
1.327
1.345
1.367
1.358
1.340
1.326
1.333
1.339
1.333
1.347
1.359
1.361
1.360
1.359
1.336
1.331
1.333
1.336
1.337
1.344
1.354
1.359
1.357
1.344
1.331
1.342
1.338
1.337
1.329
1.325
1.318
1.325
1.326
1.334
1.339
1.336
1.338
1.333
1.330
1.332
1.331
1.328
1.335
1.348
1.362
1.381
1.375
1.362
1.355
1.344
1.338
1.345
1.360
1.368
1.361
1.348
1.344
1.335
1.330
1.337
1.353
1.349
1.355
1.358
1.345
1.334
1.335
1.326
1.322
1.333
1.338
1.331
1.332
1.341
1.328
1.333
1.347
1.339
1.333
1.333
1.339
1.349
1.360
1.359
1.342
1.345
1.350
1.339
1.332
1.337
1.332
1.347
1.351
1.348
1.342
1.318
1.317
1.322
1.313
1.309
1.315
1.310
1.307
1.323
1.330
1.329
1.320
1.325
1.339
1.356
1.344
1.342
1.336
1.342
1.354
1.356
1.360
1.360
1.349
1.325
1.337
1.351
1.351
1.344
1.343
1.343
1.338
1.326
1.327
1.327
1.329
1.334
1.340
1.331
1.320
1.323
1.332
1.335
1.333
1.324
1.322
1.326
1.342
1.344
1.338
1.345
1.337
1.332
1.333
1.327
1.325
1.340
1.351
1.351
1.339
1.334
1.334
1.331
1.323
1.323
1.326
1.324
1.337
1.351
1.366
1.378
1.344
1.328
1.344
1.349
1.346
1.342
1.359
1.357
1.338
1.337
1.336
1.346
1.358
1.365
1.351
1.348
1.349
1.328
1.326
1.348
1.341
1.333
1.332
1.331
1.325
1.322
1.320
1.325
1.329
1.332
1.335
1.335
1.335
1.330
1.317
1.321
1.335
1.335
1.326
1.317
1.311
1.305
1.299
1.290
1.289
1.307
1.329
1.328
1.333
1.336
1.320
1.308
1.307
1.307
1.319
1.327
1.336
1.336
1.317
1.322
1.330
1.330
1.329
1.329
1.330
1.336
1.341
1.340
1.332
1.327
1.320
1.313
1.322
1.327
1.342
1.341
1.323
1.310
1.308
1.318
1.326
1.330
1.326
1.321
1.320
1.314
1.321
1.320
1.303
1.312
1.321
1.323
1.324
1.334
1.329
1.337
1.338
1.330
1.322
1.311
1.313
1.323
1.339
1.345
1.343
1.330
1.312
1.306
1.312
1.321
1.336
1.337
1.330
1.328
1.319
1.313
1.321
1.318
1.320
1.339
1.330
1.328
1.321
1.322
1.326
1.324
1.342
1.360
1.347
1.332
1.325
1.327
1.334
1.339
1.344
1.351
1.349
1.353
1.346
1.340
1.342
1.335
1.323
1.325
1.326
1.320
1.305
1.302
1.303
1.303
1.306
1.311
1.316
1.321
1.325
1.320
1.311
1.313
1.320
1.325
1.313
1.314
1.323
1.316
1.312
1.326
1.321
1.313
1.313
1.315
1.323
1.316
1.324
1.336
1.340
1.325
1.298
1.299
1.301
1.304
1.308
1.311
1.316
1.321
1.324
1.331
1.314
1.307
1.313
1.323
1.334
1.340
1.350
1.363
1.394
1.390
1.331
1.335
1.339
1.349
1.370
1.420
1.411
1.329
1.324
1.325
1.322
1.325
1.330
1.328
1.317
1.318
1.320
1.326
1.324
1.312
1.311
1.315
1.315
1.311
1.315
1.331
1.327
1.320
1.309
1.317
1.328
1.327
1.329
1.342
1.333
1.317
1.310
1.315
1.331
1.349
1.338
1.327
1.325
1.327
1.332
1.331
1.324
1.307
1.297
1.287
1.291
1.303
1.317
1.336
1.331
1.326
1.317
1.305
1.315
1.325
1.320
1.310
1.299
1.303
1.305
1.307
1.322
1.331
1.328
1.319
1.324
1.326
1.321
1.318
1.322
1.333
1.341
1.339
1.321
1.307
1.301
1.310
1.330
1.337
1.333
1.332
1.326
1.323
1.316
1.319
1.326
1.321
1.310
1.305
1.312
1.328
1.322
1.309
1.317
1.317
1.311
1.310
1.310
1.319
1.317
1.321
1.333
1.329
1.314
1.305
1.304
1.309
1.308
1.303
1.296
1.306
1.307
1.302
1.307
1.334
1.335
1.315
1.309
1.307
1.303
1.310
1.323
1.326
1.305
1.317
1.321
1.319
1.322
1.316
1.311
1.314
1.287
1.275
1.268
1.254
1.246
1.242
1.244
1.254
1.251
1.249
1.236
1.221
1.220
1.219
1.214
1.208
1.211
1.205
1.219
1.231
1.234
1.237
1.244
1.248
1.251
1.261
1.264
1.272
1.281
1.271
1.261
1.250
1.238
1.229
1.229
1.231
1.226
1.214
1.213
1.234
1.243
1.248
1.237
1.229
1.234
1.237
1.237
1.242
1.242
1.245
1.237
1.235
1.234
1.245
1.251
1.247
1.252
1.252
1.246
1.241
1.233
1.220
1.226
1.238
1.234
1.238
1.238
1.242
1.241
1.220
1.207
1.222
1.227
1.229
1.222
1.226
1.221
1.226
1.231
1.234
1.223
1.238
1.247
1.237
1.240
1.244
1.232
1.221
1.211
1.217
1.223
1.232
1.231
1.227
1.234
1.242
1.242
1.224
1.221
1.222
1.226
1.233
1.238
1.246
1.246
1.242
1.235
1.247
1.241
1.226
1.226
1.233
1.242
1.240
1.228
1.224
1.229
1.220
1.219
1.223
1.227
1.218
1.214
1.220
1.216
1.227
1.234
1.218
1.221
1.227
1.223
1.227
1.225
1.219
1.230
1.234
1.235
1.231
1.221
1.231
1.238
1.238
1.225
1.229
1.231
1.223
1.221
1.214
1.208
1.211
1.213
1.232
1.247
1.248
1.238
1.228
1.216
1.215
1.219
1.224
1.224
1.222
1.224
1.236
1.235
1.240
1.239
1.225
1.217
1.226
1.240
1.249
1.240
1.227
1.222
1.230
1.234
1.230
1.238
1.239
1.238
1.249
1.257
1.242
1.227
1.218
1.226
1.236
1.226
1.218
1.222
1.221
1.226
1.238
1.233
1.227
1.229
1.225
1.217
1.220
1.230
1.239
1.237
1.240
1.244
1.242
1.235
1.221
1.206
1.209
1.226
1.231
1.229
1.234
1.229
1.215
1.212
1.224
1.239
1.228
1.216
1.224
1.220
1.218
1.230
1.239
1.242
1.244
1.239
1.231
1.227
1.230
1.223
1.221
1.224
1.229
1.237
1.244
1.239
1.238
1.237
1.239
1.251
1.254
1.258
1.252
1.241
1.231
1.222
1.241
1.251
1.248
1.249
1.243
1.242
1.240
1.249
1.262
1.249
1.243
1.239
1.223
1.218
1.214
1.210
1.215
1.217
1.211
1.214
1.215
1.221
1.223
1.238
1.235
1.241
1.246
1.237
1.230
1.228
1.218
1.215
1.223
1.223
1.225
1.230
1.242
1.238
1.224
1.224
1.228
1.233
1.227
1.218
1.224
1.228
1.221
1.216
1.217
1.214
1.210
1.209
1.222
1.220
1.224
1.237
1.243
1.237
1.237
1.226
1.226
1.239
1.253
1.244
1.227
1.215
1.212
1.214
1.230
1.242
1.248
1.249
1.239
1.228
1.211
1.202
1.207
1.224
1.226
1.213
1.214
1.218
1.217
1.219
1.223
1.228
1.228
1.228
1.238
1.236
1.248
1.244
1.232
1.230
1.241
1.242
1.229
1.221
1.224
1.231
1.240
1.242
1.232
1.225
1.237
1.230
1.230
1.234
1.228
1.225
1.236
1.232
1.234
1.230
1.221
1.218
1.212
1.214
1.214
1.206
1.208
1.221
1.236
1.231
1.231
1.237
1.224
1.217
1.220
1.215
1.212
1.213
1.232
1.246
1.246
1.230
1.224
1.224
1.216
1.211
1.213
1.219
1.226
1.220
1.212
1.200
1.206
1.220
1.228
1.229
1.225
1.226
1.236
1.248
1.244
1.249
1.253
1.241
1.244
1.240
1.226
1.228
1.223
1.228
1.238
1.246
1.244
1.248
1.252
1.266
1.295
1.284
1.221
1.204
1.224
1.232
1.237
1.235
1.228
1.228
1.236
1.238
1.237
1.241
1.237
1.237
1.233
1.235
1.238
1.244
1.241
1.245
1.236
1.211
1.210
1.217
1.224
1.230
1.227
1.225
1.235
1.228
1.223
1.230
1.238
1.242
1.240
1.224
1.226
1.231
1.250
1.256
1.251
1.244
1.241
1.226
1.219
1.230
1.234
1.227
1.232
1.239
1.227
1.221
1.217
1.216
1.224
1.234
1.230
1.218
1.215
1.227
1.230
1.236
1.247
1.242
1.228
1.237
1.233
1.227
1.229
1.226
1.228
1.226
1.224
1.228
1.231
1.234
1.232
1.229
1.239
1.243
1.238
1.246
1.255
1.255
1.252
1.255
1.238
1.227
1.235
1.246
1.241
1.224
1.221
1.219
1.224
1.223
1.219
1.221
1.236
1.239
1.239
1.237
1.235
1.236
1.241
1.225
1.210
1.227
1.231
1.213
1.211
1.214
1.219
1.241
1.247
1.240
1.255
1.267
1.249
1.232
1.230
1.234
1.226
1.221
1.224
1.239
1.244
1.240
1.242
1.237
1.227
1.228
1.226
1.233
1.254
1.262
1.263
1.264
1.254
1.247
1.239
1.228
1.222
1.203
1.204
1.214
1.219
1.216
1.227
1.239
1.223
1.208
1.210
1.203
1.205
1.228
1.244
1.246
1.249
1.252
1.244
1.235
1.224
1.228
1.238
1.234
1.243
1.244
1.236
1.229
1.218
1.216
1.229
1.231
1.222
1.213
1.230
1.242
1.238
1.237
1.234
1.213
1.215
1.209
1.203
1.211
1.225
1.242
1.242
1.220
1.209
1.210
1.212
1.227
1.232
1.245
1.243
1.217
1.216
1.225
1.222
1.225
1.231
1.244
1.261
1.267
1.260
1.242
1.236
1.246
1.252
1.245
1.229
1.203
1.206
1.221
1.221
1.218
1.221
1.225
1.219
1.227
1.229
1.207
1.204
1.212
1.228
1.244
1.253
1.250
1.245
1.236
1.228
1.231
1.237
1.241
1.244
1.244
1.246
1.246
1.235
1.227
1.222
1.226
1.232
1.234
1.230
1.218
1.222
1.217
1.225
1.237
1.238
1.236
1.231
1.227
1.230
1.242
1.247
1.245
1.257
1.255
1.245
1.233
1.225
1.230
1.240
1.257
1.258
1.251
1.242
1.219
1.243
1.248
1.247
1.241
1.244
1.235
1.221
1.223
1.225
1.220
1.223
1.233
1.232
1.215
1.211
1.218
1.226
1.224
1.230
1.241
1.257
1.267
1.262
1.233
1.222
1.216
1.209
1.211
1.228
1.240
1.239
1.232
1.223
1.226
1.251
1.259
1.244
1.248
1.261
1.259
1.269
1.272
1.252
1.242
1.233
1.224
1.236
1.243
1.256
1.252
1.226
1.214
1.217
1.210
1.217
1.231
1.233
1.227
1.224
1.224
1.228
1.242
1.232
1.210
1.214
1.211
1.218
1.212
1.224
1.241
1.241
1.241
1.246
1.245
1.229
1.219
1.230
1.240
1.241
1.222
1.220
1.229
1.245
1.239
1.242
1.248
1.267
1.286
1.275
1.260
1.267
1.248
1.253
1.245
1.239
1.228
1.221
1.234
1.249
1.240
1.229
1.228
1.231
1.226
1.234
1.227
1.230
1.233
1.232
1.227
1.225
1.215
1.208
1.222
1.242
1.240
1.242
1.236
1.228
1.234
1.238
1.242
1.234
1.227
1.230
1.251
1.249
1.243
1.240
1.243
1.252
1.242
1.237
1.235
1.239
1.235
1.235
1.240
1.254
1.260
1.250
1.233
1.229
1.250
1.253
1.246
1.242
1.235
1.212
1.210
1.226
1.233
1.232
1.236
1.245
1.226
1.233
1.245
1.235
1.238
1.256
1.269
1.258
1.227
1.232
1.242
1.249
1.252
1.249
1.239
1.228
1.233
1.244
1.230
1.210
1.210
1.209
1.224
1.240
1.239
1.238
1.239
1.242
1.231
1.230
1.218
1.237
1.245
1.234
1.223
1.225
1.230
1.230
1.235
1.243
1.246
1.251
1.244
1.233
1.233
1.231
1.217
1.221
1.217
1.212
1.225
1.222
1.217
1.230
1.233
1.231
1.227
1.221
1.229
1.241
1.244
1.225
1.219
1.224
1.228
1.229
1.218
1.215
1.217
1.215
1.211
1.226
1.235
1.228
1.233
1.234
1.234
1.241
1.255
1.256
1.262
1.257
1.246
1.244
1.240
1.226
1.224
1.218
1.210
1.227
1.234
1.216
1.221
1.235
