Intensity BB4.1,,C:\Users\Brend\Desktop\LED Spectras v2\Blinds\-Interference\Spectrometer Data.sp,,,BB4.1,
1.678,,2018-07-11 15:25:24,,Integration Time,100 ms,
1.666,,Analyze Light,,Number of Scans to Average,25,
1.661,,,,Smoothing,0,
1.679
1.692
1.697
1.704
1.696
1.679
1.694
1.709
1.706
1.708
1.728
1.740
1.740
1.716
1.715
1.720
1.733
1.747
1.758
1.763
1.757
1.757
1.763
1.761
1.773
1.783
1.805
1.810
1.809
1.803
1.803
1.795
1.806
1.800
1.789
1.791
1.802
1.802
1.800
1.795
1.817
1.825
1.829
1.839
1.850
1.854
1.854
1.865
1.853
1.858
1.864
1.864
1.856
1.859
1.873
1.884
1.885
1.888
1.896
1.902
1.916
1.912
1.920
1.921
1.940
1.932
1.938
1.947
1.942
1.944
1.953
1.963
1.976
1.989
1.979
1.974
1.973
1.974
1.976
1.979
1.969
1.972
1.994
2.015
2.032
2.010
2.001
2.000
1.998
1.987
1.982
1.998
2.012
2.031
2.039
2.025
2.035
2.042
2.035
2.029
2.038
2.038
2.037
2.047
2.074
2.085
2.087
2.090
2.091
2.085
2.087
2.093
2.083
2.084
2.101
2.114
2.126
2.126
2.129
2.105
2.134
2.144
2.127
2.134
2.152
2.152
2.165
2.172
2.181
2.174
2.178
2.180
2.190
2.186
2.185
2.183
2.183
2.185
2.199
2.200
2.197
2.200
2.203
2.193
2.188
2.186
2.209
2.210
2.207
2.211
2.219
2.218
2.228
2.227
2.239
2.222
2.219
2.224
2.218
2.216
2.231
2.224
2.219
2.214
2.223
2.205
2.218
2.220
2.235
2.237
2.244
2.235
2.234
2.238
2.255
2.265
2.260
2.253
2.260
2.261
2.282
2.300
2.334
2.340
2.337
2.338
2.348
2.358
2.392
2.400
2.412
2.434
2.469
2.482
2.517
2.548
2.574
2.597
2.640
2.673
2.714
2.759
2.803
2.839
2.888
2.944
3.007
3.067
3.174
3.263
3.348
3.401
3.494
3.571
3.666
3.765
3.860
3.968
4.116
4.232
4.366
4.479
4.623
4.779
4.944
5.102
5.290
5.446
5.643
5.847
6.050
6.269
6.487
6.697
6.926
7.146
7.414
7.648
7.944
8.223
8.530
8.817
9.138
9.480
9.834
10.167
10.532
10.902
11.303
11.700
12.137
12.600
13.056
13.536
14.080
14.613
15.200
15.813
16.442
17.078
17.789
18.478
19.235
20.018
20.878
21.721
22.624
23.562
24.552
25.597
26.678
27.763
28.903
30.042
31.198
32.404
33.692
35.045
36.408
37.752
39.106
40.416
41.773
43.117
44.504
45.926
47.323
48.695
50.024
51.297
52.566
53.772
54.922
55.997
57.030
57.956
58.798
59.516
60.156
60.714
61.218
61.596
61.796
61.879
61.938
61.866
61.674
61.408
61.032
60.523
59.951
59.305
58.569
57.759
56.917
56.030
55.087
54.036
52.994
51.930
50.758
49.590
48.474
47.351
46.269
45.188
44.161
43.058
41.990
41.012
40.030
39.080
38.149
37.262
36.443
35.629
34.884
34.163
33.509
32.848
32.203
31.636
31.068
30.542
30.060
29.570
29.057
28.551
28.064
27.636
27.229
26.778
26.308
25.865
25.442
24.973
24.466
24.004
23.592
23.145
22.722
22.295
21.866
21.447
21.023
20.584
20.121
19.665
19.263
18.834
18.392
17.997
17.571
17.119
16.686
16.262
15.838
15.388
15.021
14.645
14.300
13.884
13.493
13.128
12.794
12.421
12.078
11.785
11.508
11.202
10.898
10.587
10.328
10.062
9.827
9.585
9.366
9.112
8.901
8.672
8.478
8.246
8.058
7.874
7.710
7.514
7.331
7.150
7.007
6.824
6.674
6.518
6.387
6.241
6.115
5.970
5.824
5.678
5.542
5.385
5.265
5.145
5.046
4.924
4.820
4.707
4.584
4.452
4.349
4.230
4.136
4.016
3.933
3.826
3.736
3.645
3.555
3.446
3.395
3.333
3.258
3.181
3.107
3.006
2.949
2.876
2.815
2.774
2.741
2.663
2.593
2.544
2.511
2.467
2.437
2.399
2.374
2.321
2.283
2.246
2.207
2.175
2.164
2.148
2.143
2.109
2.077
2.047
2.046
2.029
1.986
1.971
1.964
1.940
1.916
1.913
1.916
1.891
1.863
1.832
1.825
1.805
1.794
1.777
1.768
1.766
1.761
1.752
1.735
1.726
1.716
1.698
1.702
1.686
1.670
1.667
1.670
1.686
1.683
1.682
1.674
1.659
1.646
1.649
1.657
1.640
1.621
1.618
1.612
1.595
1.590
1.587
1.597
1.603
1.600
1.576
1.569
1.571
1.582
1.564
1.553
1.538
1.529
1.525
1.525
1.521
1.521
1.513
1.507
1.509
1.507
1.524
1.512
1.495
1.488
1.486
1.483
1.478
1.474
1.460
1.462
1.468
1.457
1.447
1.468
1.454
1.440
1.434
1.434
1.431
1.435
1.438
1.436
1.439
1.445
1.443
1.444
1.446
1.453
1.448
1.427
1.428
1.428
1.424
1.427
1.436
1.424
1.426
1.445
1.433
1.426
1.411
1.407
1.405
1.411
1.411
1.404
1.392
1.393
1.394
1.403
1.423
1.427
1.412
1.407
1.408
1.397
1.387
1.371
1.381
1.397
1.403
1.394
1.383
1.372
1.376
1.390
1.392
1.395
1.391
1.390
1.374
1.380
1.383
1.385
1.397
1.401
1.393
1.388
1.386
1.375
1.375
1.388
1.397
1.395
1.383
1.374
1.371
1.386
1.396
1.385
1.374
1.377
1.386
1.394
1.392
1.388
1.383
1.383
1.378
1.376
1.371
1.376
1.382
1.387
1.387
1.380
1.383
1.392
1.393
1.392
1.359
1.365
1.378
1.381
1.369
1.362
1.358
1.360
1.361
1.354
1.361
1.381
1.388
1.388
1.371
1.364
1.356
1.342
1.345
1.358
1.354
1.365
1.398
1.411
1.405
1.382
1.370
1.368
1.372
1.386
1.394
1.384
1.381
1.393
1.396
1.392
1.385
1.383
1.377
1.372
1.367
1.359
1.366
1.359
1.360
1.361
1.357
1.366
1.354
1.368
1.369
1.370
1.364
1.364
1.371
1.365
1.355
1.352
1.345
1.350
1.365
1.373
1.379
1.391
1.392
1.372
1.368
1.376
1.364
1.351
1.351
1.371
1.383
1.368
1.356
1.369
1.382
1.363
1.352
1.345
1.345
1.349
1.365
1.386
1.380
1.372
1.368
1.357
1.361
1.359
1.338
1.336
1.342
1.355
1.360
1.353
1.359
1.363
1.351
1.342
1.347
1.367
1.363
1.340
1.326
1.324
1.336
1.353
1.370
1.360
1.348
1.337
1.337
1.335
1.336
1.352
1.357
1.359
1.361
1.357
1.336
1.332
1.342
1.338
1.330
1.340
1.360
1.364
1.354
1.339
1.330
1.338
1.336
1.334
1.323
1.326
1.323
1.337
1.340
1.340
1.339
1.345
1.345
1.343
1.333
1.339
1.344
1.335
1.341
1.350
1.356
1.370
1.367
1.358
1.358
1.347
1.344
1.354
1.366
1.369
1.352
1.337
1.336
1.337
1.329
1.333
1.356
1.363
1.366
1.359
1.349
1.343
1.341
1.331
1.323
1.332
1.339
1.339
1.328
1.334
1.326
1.330
1.338
1.342
1.341
1.330
1.330
1.342
1.356
1.358
1.345
1.343
1.340
1.330
1.324
1.327
1.324
1.326
1.336
1.338
1.342
1.324
1.321
1.328
1.322
1.312
1.318
1.322
1.319
1.329
1.337
1.330
1.320
1.318
1.329
1.344
1.345
1.344
1.337
1.343
1.351
1.358
1.361
1.365
1.350
1.327
1.346
1.354
1.347
1.351
1.358
1.353
1.346
1.338
1.336
1.336
1.332
1.334
1.339
1.335
1.328
1.329
1.326
1.338
1.335
1.322
1.326
1.334
1.347
1.345
1.340
1.355
1.353
1.349
1.344
1.337
1.328
1.343
1.355
1.352
1.334
1.329
1.331
1.326
1.323
1.319
1.330
1.340
1.350
1.356
1.371
1.381
1.341
1.334
1.350
1.356
1.341
1.342
1.352
1.344
1.326
1.328
1.339
1.354
1.361
1.365
1.357
1.351
1.346
1.332
1.331
1.340
1.336
1.331
1.335
1.336
1.332
1.326
1.319
1.331
1.336
1.341
1.335
1.333
1.336
1.336
1.326
1.332
1.345
1.346
1.337
1.332
1.326
1.321
1.310
1.296
1.294
1.315
1.329
1.323
1.326
1.327
1.317
1.298
1.295
1.298
1.313
1.323
1.336
1.337
1.325
1.323
1.319
1.319
1.326
1.329
1.334
1.338
1.343
1.349
1.339
1.333
1.330
1.326
1.338
1.343
1.340
1.342
1.324
1.317
1.312
1.322
1.329
1.329
1.334
1.326
1.326
1.315
1.325
1.325
1.309
1.313
1.317
1.324
1.326
1.330
1.325
1.333
1.338
1.334
1.316
1.309
1.322
1.333
1.336
1.339
1.338
1.332
1.319
1.317
1.319
1.332
1.344
1.340
1.329
1.327
1.319
1.314
1.314
1.311
1.306
1.326
1.323
1.313
1.316
1.326
1.336
1.338
1.345
1.363
1.351
1.326
1.324
1.326
1.333
1.339
1.338
1.351
1.350
1.348
1.343
1.340
1.340
1.339
1.328
1.327
1.327
1.331
1.318
1.311
1.316
1.310
1.307
1.312
1.317
1.322
1.325
1.328
1.323
1.318
1.322
1.321
1.320
1.316
1.319
1.313
1.308
1.313
1.315
1.310
1.310
1.319
1.322
1.308
1.312
1.326
1.337
1.326
1.299
1.299
1.302
1.303
1.309
1.315
1.309
1.317
1.309
1.323
1.320
1.311
1.318
1.323
1.334
1.340
1.348
1.359
1.387
1.381
1.337
1.346
1.347
1.341
1.363
1.417
1.407
1.318
1.313
1.316
1.324
1.322
1.326
1.330
1.316
1.311
1.314
1.323
1.321
1.306
1.307
1.309
1.316
1.313
1.321
1.333
1.327
1.317
1.311
1.320
1.326
1.326
1.330
1.345
1.337
1.322
1.315
1.320
1.330
1.337
1.331
1.325
1.328
1.332
1.333
1.329
1.325
1.315
1.308
1.309
1.309
1.318
1.328
1.339
1.322
1.316
1.317
1.306
1.313
1.319
1.310
1.298
1.289
1.292
1.308
1.315
1.326
1.343
1.343
1.335
1.329
1.328
1.315
1.311
1.311
1.320
1.336
1.349
1.326
1.303
1.304
1.317
1.325
1.332
1.331
1.330
1.319
1.314
1.311
1.311
1.323
1.320
1.305
1.300
1.309
1.317
1.311
1.303
1.315
1.320
1.317
1.317
1.310
1.315
1.320
1.319
1.329
1.338
1.327
1.320
1.316
1.326
1.320
1.309
1.305
1.312
1.307
1.302
1.303
1.328
1.326
1.313
1.308
1.307
1.303
1.314
1.330
1.332
1.312
1.314
1.316
1.311
1.315
1.313
1.305
1.299
1.282
1.288
1.291
1.273
1.262
1.252
1.242
1.245
1.249
1.253
1.242
1.227
1.215
1.218
1.218
1.210
1.209
1.208
1.218
1.229
1.232
1.238
1.242
1.235
1.241
1.252
1.259
1.264
1.272
1.262
1.253
1.247
1.233
1.228
1.232
1.232
1.232
1.227
1.219
1.228
1.234
1.228
1.218
1.210
1.224
1.235
1.236
1.241
1.246
1.241
1.227
1.220
1.218
1.230
1.239
1.236
1.240
1.247
1.242
1.236
1.227
1.214
1.222
1.237
1.236
1.235
1.239
1.252
1.251
1.231
1.214
1.219
1.222
1.223
1.222
1.227
1.221
1.216
1.220
1.226
1.225
1.237
1.247
1.241
1.237
1.242
1.232
1.224
1.213
1.224
1.233
1.235
1.239
1.234
1.237
1.242
1.242
1.233
1.223
1.219
1.219
1.223
1.221
1.232
1.240
1.238
1.238
1.253
1.251
1.233
1.223
1.234
1.242
1.240
1.229
1.219
1.214
1.211
1.220
1.218
1.213
1.206
1.210
1.214
1.214
1.220
1.229
1.225
1.222
1.224
1.227
1.238
1.232
1.221
1.224
1.225
1.232
1.234
1.223
1.226
1.235
1.233
1.217
1.219
1.217
1.216
1.212
1.208
1.203
1.200
1.207
1.223
1.242
1.243
1.227
1.222
1.209
1.210
1.212
1.216
1.223
1.220
1.228
1.243
1.244
1.243
1.240
1.225
1.215
1.228
1.242
1.254
1.238
1.225
1.223
1.227
1.227
1.224
1.235
1.239
1.230
1.238
1.249
1.231
1.223
1.224
1.231
1.230
1.224
1.219
1.227
1.232
1.235
1.233
1.230
1.232
1.233
1.230
1.225
1.224
1.229
1.237
1.232
1.228
1.233
1.235
1.229
1.223
1.208
1.215
1.226
1.231
1.227
1.229
1.231
1.227
1.223
1.227
1.242
1.234
1.229
1.223
1.216
1.219
1.238
1.243
1.239
1.247
1.247
1.234
1.231
1.234
1.221
1.217
1.228
1.227
1.232
1.236
1.248
1.251
1.246
1.243
1.251
1.259
1.255
1.245
1.245
1.235
1.225
1.240
1.248
1.250
1.258
1.255
1.253
1.248
1.251
1.254
1.249
1.240
1.230
1.211
1.208
1.212
1.213
1.225
1.223
1.218
1.223
1.221
1.214
1.228
1.230
1.237
1.235
1.249
1.243
1.242
1.237
1.226
1.218
1.222
1.229
1.229
1.235
1.247
1.239
1.219
1.219
1.226
1.236
1.231
1.227
1.227
1.225
1.212
1.213
1.211
1.205
1.200
1.209
1.221
1.225
1.228
1.238
1.240
1.235
1.242
1.223
1.216
1.233
1.242
1.235
1.222
1.213
1.206
1.209
1.223
1.232
1.239
1.235
1.228
1.229
1.215
1.210
1.213
1.228
1.225
1.216
1.219
1.212
1.217
1.226
1.229
1.239
1.237
1.230
1.239
1.234
1.242
1.236
1.222
1.230
1.252
1.253
1.234
1.213
1.213
1.210
1.223
1.230
1.229
1.229
1.230
1.222
1.226
1.234
1.220
1.208
1.216
1.224
1.224
1.225
1.219
1.207
1.209
1.219
1.211
1.201
1.213
1.224
1.233
1.239
1.233
1.223
1.207
1.206
1.212
1.214
1.204
1.209
1.229
1.238
1.235
1.225
1.219
1.222
1.213
1.203
1.212
1.224
1.229
1.222
1.218
1.213
1.223
1.234
1.239
1.241
1.237
1.222
1.229
1.240
1.242
1.244
1.245
1.230
1.231
1.232
1.229
1.223
1.224
1.224
1.222
1.230
1.231
1.230
1.248
1.264
1.298
1.297
1.234
1.216
1.230
1.233
1.236
1.235
1.227
1.228
1.243
1.245
1.235
1.242
1.241
1.239
1.230
1.221
1.229
1.244
1.240
1.243
1.239
1.204
1.204
1.214
1.225
1.237
1.220
1.224
1.233
1.230
1.225
1.230
1.233
1.241
1.230
1.217
1.221
1.230
1.245
1.258
1.253
1.243
1.229
1.212
1.207
1.224
1.233
1.223
1.239
1.252
1.244
1.233
1.218
1.213
1.225
1.238
1.232
1.216
1.214
1.231
1.229
1.227
1.239
1.236
1.227
1.224
1.217
1.217
1.217
1.217
1.218
1.223
1.224
1.226
1.228
1.234
1.230
1.233
1.242
1.254
1.246
1.242
1.251
1.242
1.238
1.243
1.232
1.219
1.228
1.231
1.222
1.216
1.219
1.222
1.222
1.224
1.214
1.216
1.224
1.228
1.237
1.243
1.243
1.239
1.247
1.227
1.215
1.231
1.230
1.221
1.214
1.220
1.228
1.250
1.250
1.248
1.259
1.258
1.244
1.223
1.236
1.242
1.232
1.229
1.236
1.239
1.246
1.239
1.248
1.241
1.232
1.229
1.220
1.230
1.259
1.272
1.261
1.274
1.261
1.245
1.243
1.238
1.228
1.212
1.215
1.222
1.228
1.226
1.238
1.252
1.236
1.217
1.219
1.212
1.209
1.222
1.237
1.242
1.247
1.252
1.243
1.235
1.231
1.236
1.244
1.240
1.254
1.251
1.226
1.215
1.209
1.223
1.237
1.238
1.235
1.222
1.224
1.238
1.242
1.241
1.236
1.219
1.224
1.215
1.210
1.218
1.230
1.237
1.233
1.221
1.208
1.212
1.223
1.235
1.231
1.237
1.239
1.209
1.210
1.217
1.217
1.209
1.221
1.243
1.255
1.269
1.266
1.249
1.242
1.247
1.246
1.251
1.238
1.209
1.207
1.223
1.231
1.232
1.229
1.222
1.224
1.238
1.235
1.223
1.214
1.215
1.233
1.249
1.255
1.242
1.234
1.235
1.236
1.223
1.225
1.231
1.240
1.244
1.246
1.240
1.228
1.220
1.216
1.222
1.238
1.242
1.244
1.232
1.220
1.219
1.222
1.236
1.244
1.239
1.238
1.230
1.223
1.226
1.234
1.240
1.252
1.257
1.251
1.235
1.227
1.234
1.242
1.254
1.266
1.265
1.248
1.225
1.245
1.257
1.248
1.239
1.231
1.224
1.217
1.219
1.216
1.214
1.222
1.219
1.213
1.209
1.211
1.217
1.219
1.217
1.225
1.232
1.248
1.267
1.258
1.237
1.229
1.223
1.218
1.218
1.236
1.247
1.245
1.237
1.227
1.228
1.253
1.259
1.248
1.250
1.255
1.251
1.258
1.266
1.253
1.244
1.232
1.237
1.248
1.257
1.272
1.265
1.232
1.215
1.213
1.208
1.222
1.232
1.229
1.220
1.227
1.231
1.230
1.246
1.237
1.220
1.228
1.215
1.215
1.224
1.231
1.242
1.242
1.239
1.245
1.249
1.237
1.227
1.230
1.238
1.243
1.238
1.237
1.233
1.243
1.235
1.232
1.238
1.257
1.284
1.270
1.257
1.259
1.245
1.252
1.242
1.236
1.227
1.227
1.236
1.239
1.241
1.235
1.233
1.231
1.229
1.238
1.221
1.219
1.227
1.225
1.230
1.227
1.219
1.217
1.229
1.241
1.243
1.238
1.234
1.235
1.238
1.250
1.243
1.232
1.226
1.229
1.250
1.260
1.249
1.249
1.243
1.249
1.236
1.230
1.236
1.237
1.232
1.235
1.234
1.240
1.249
1.245
1.231
1.227
1.242
1.247
1.242
1.233
1.231
1.222
1.208
1.227
1.238
1.233
1.242
1.244
1.234
1.240
1.243
1.241
1.243
1.266
1.270
1.261
1.239
1.240
1.252
1.263
1.259
1.251
1.244
1.230
1.226
1.237
1.227
1.215
1.220
1.219
1.229
1.244
1.242
1.240
1.247
1.250
1.236
1.233
1.223
1.233
1.237
1.231
1.220
1.236
1.242
1.238
1.244
1.248
1.248
1.256
1.249
1.237
1.232
1.230
1.223
1.227
1.226
1.223
1.225
1.217
1.209
1.225
1.230
1.227
1.222
1.226
1.237
1.241
1.239
1.226
1.214
1.215
1.218
1.224
1.225
1.226
1.221
1.214
1.206
1.210
1.221
1.223
1.217
1.228
1.234
1.241
1.252
1.262
1.270
1.258
1.241
1.240
1.235
1.225
1.224
1.219
1.214
1.224
1.229
1.214
1.219
1.236
