Intensity BB6.2,,C:\Users\Brend\Desktop\LED Spectras v2\Blinds\-Interference\Spectrometer Data.sp,,,BB6.2,
1.651,,2018-07-12 09:26:13,,Integration Time,100 ms,
1.636,,Analyze Light,,Number of Scans to Average,25,
1.635,,,,Smoothing,0,
1.643
1.652
1.657
1.668
1.663
1.661
1.666
1.672
1.673
1.679
1.696
1.714
1.711
1.689
1.686
1.686
1.690
1.695
1.712
1.726
1.716
1.719
1.728
1.729
1.734
1.737
1.753
1.767
1.778
1.768
1.760
1.749
1.759
1.757
1.753
1.761
1.763
1.760
1.765
1.762
1.779
1.777
1.772
1.781
1.796
1.793
1.798
1.806
1.804
1.805
1.816
1.814
1.805
1.807
1.818
1.830
1.835
1.842
1.846
1.846
1.855
1.855
1.859
1.862
1.872
1.874
1.885
1.889
1.887
1.880
1.885
1.898
1.916
1.935
1.937
1.935
1.924
1.917
1.916
1.919
1.912
1.913
1.939
1.966
1.990
1.971
1.960
1.946
1.944
1.949
1.947
1.950
1.952
1.965
1.977
1.976
1.995
2.004
2.014
2.001
2.001
1.999
1.997
1.999
2.023
2.019
2.014
2.025
2.030
2.026
2.031
2.043
2.028
2.019
2.031
2.044
2.049
2.056
2.056
2.040
2.066
2.077
2.073
2.069
2.083
2.080
2.093
2.092
2.088
2.088
2.092
2.103
2.116
2.113
2.109
2.107
2.118
2.115
2.126
2.127
2.131
2.125
2.125
2.119
2.108
2.121
2.136
2.134
2.138
2.132
2.137
2.144
2.156
2.152
2.159
2.146
2.137
2.152
2.153
2.152
2.154
2.156
2.156
2.144
2.159
2.147
2.162
2.162
2.163
2.156
2.172
2.173
2.168
2.177
2.180
2.173
2.181
2.169
2.164
2.159
2.184
2.203
2.234
2.247
2.232
2.225
2.227
2.241
2.264
2.264
2.275
2.285
2.308
2.326
2.354
2.380
2.400
2.408
2.448
2.473
2.500
2.540
2.575
2.604
2.644
2.681
2.737
2.772
2.836
2.898
2.968
3.023
3.097
3.170
3.242
3.342
3.418
3.497
3.610
3.696
3.816
3.925
4.026
4.126
4.260
4.385
4.540
4.685
4.860
5.039
5.206
5.377
5.565
5.738
5.930
6.127
6.373
6.572
6.789
7.009
7.260
7.516
7.837
8.115
8.407
8.684
9.010
9.340
9.684
10.022
10.398
10.766
11.179
11.571
12.021
12.486
13.010
13.505
14.024
14.591
15.152
15.759
16.398
17.065
17.784
18.487
19.244
20.021
20.872
21.723
22.606
23.540
24.518
25.535
26.559
27.641
28.786
29.918
31.088
32.318
33.551
34.745
35.992
37.228
38.547
39.883
41.212
42.510
43.813
45.080
46.373
47.645
48.865
49.995
51.136
52.205
53.169
54.060
54.906
55.660
56.331
56.912
57.383
57.757
58.081
58.278
58.368
58.406
58.285
58.034
57.689
57.285
56.808
56.213
55.587
54.921
54.131
53.319
52.395
51.425
50.412
49.362
48.313
47.267
46.200
45.177
44.166
43.152
42.123
41.122
40.141
39.191
38.227
37.302
36.414
35.543
34.804
34.077
33.406
32.703
32.062
31.491
30.933
30.414
29.899
29.369
28.873
28.368
27.863
27.422
27.034
26.616
26.189
25.779
25.364
24.877
24.432
24.055
23.663
23.225
22.821
22.426
22.032
21.602
21.213
20.824
20.420
19.968
19.567
19.150
18.709
18.295
17.900
17.483
17.073
16.655
16.242
15.831
15.432
15.057
14.696
14.306
13.895
13.513
13.183
12.816
12.464
12.134
11.833
11.533
11.241
10.909
10.636
10.351
10.117
9.852
9.621
9.358
9.126
8.899
8.687
8.457
8.268
8.083
7.937
7.726
7.538
7.348
7.180
6.995
6.841
6.693
6.568
6.422
6.294
6.134
5.984
5.833
5.712
5.537
5.432
5.310
5.197
5.075
4.986
4.867
4.764
4.620
4.512
4.398
4.297
4.176
4.081
3.964
3.876
3.801
3.696
3.582
3.523
3.451
3.370
3.293
3.228
3.140
3.090
3.000
2.930
2.865
2.816
2.733
2.666
2.605
2.570
2.530
2.508
2.474
2.439
2.387
2.346
2.310
2.256
2.224
2.210
2.188
2.172
2.132
2.103
2.081
2.083
2.066
2.025
2.002
1.993
1.980
1.957
1.942
1.948
1.916
1.882
1.860
1.857
1.841
1.827
1.799
1.785
1.775
1.764
1.756
1.747
1.742
1.741
1.723
1.719
1.698
1.680
1.677
1.672
1.684
1.697
1.686
1.680
1.666
1.646
1.650
1.660
1.643
1.631
1.631
1.616
1.597
1.595
1.581
1.586
1.598
1.593
1.570
1.567
1.569
1.582
1.569
1.562
1.547
1.527
1.522
1.523
1.528
1.531
1.528
1.516
1.505
1.501
1.504
1.497
1.484
1.480
1.476
1.485
1.478
1.480
1.485
1.487
1.492
1.479
1.457
1.471
1.465
1.450
1.446
1.448
1.436
1.439
1.443
1.443
1.445
1.453
1.446
1.444
1.450
1.453
1.447
1.425
1.411
1.416
1.417
1.423
1.426
1.413
1.416
1.436
1.429
1.415
1.401
1.402
1.404
1.409
1.414
1.397
1.390
1.402
1.404
1.412
1.426
1.422
1.411
1.410
1.411
1.406
1.397
1.393
1.392
1.404
1.412
1.400
1.389
1.368
1.374
1.388
1.395
1.389
1.370
1.373
1.362
1.372
1.388
1.384
1.397
1.404
1.402
1.394
1.380
1.377
1.385
1.399
1.401
1.394
1.388
1.375
1.368
1.372
1.388
1.380
1.358
1.368
1.384
1.387
1.384
1.379
1.376
1.375
1.377
1.377
1.368
1.369
1.381
1.391
1.390
1.382
1.389
1.398
1.394
1.382
1.349
1.360
1.374
1.382
1.370
1.369
1.362
1.358
1.351
1.342
1.353
1.371
1.386
1.392
1.382
1.379
1.363
1.347
1.353
1.364
1.356
1.368
1.394
1.411
1.401
1.385
1.375
1.376
1.375
1.389
1.387
1.377
1.379
1.395
1.397
1.389
1.384
1.381
1.367
1.357
1.354
1.362
1.367
1.355
1.356
1.348
1.348
1.346
1.338
1.351
1.363
1.363
1.355
1.351
1.358
1.355
1.355
1.360
1.361
1.364
1.376
1.369
1.376
1.389
1.383
1.370
1.371
1.375
1.368
1.354
1.360
1.378
1.391
1.379
1.361
1.366
1.384
1.370
1.354
1.358
1.355
1.349
1.358
1.368
1.368
1.368
1.379
1.369
1.361
1.349
1.331
1.340
1.343
1.348
1.352
1.357
1.365
1.365
1.343
1.330
1.338
1.350
1.349
1.342
1.336
1.332
1.335
1.354
1.364
1.365
1.356
1.348
1.339
1.335
1.336
1.358
1.362
1.360
1.361
1.350
1.326
1.317
1.319
1.331
1.337
1.354
1.360
1.365
1.361
1.350
1.347
1.350
1.345
1.340
1.323
1.328
1.328
1.336
1.336
1.342
1.339
1.337
1.342
1.340
1.341
1.347
1.344
1.336
1.333
1.353
1.371
1.378
1.368
1.357
1.356
1.351
1.346
1.345
1.358
1.364
1.348
1.332
1.331
1.326
1.314
1.321
1.337
1.353
1.364
1.360
1.350
1.338
1.333
1.326
1.323
1.336
1.345
1.341
1.337
1.334
1.325
1.331
1.342
1.340
1.335
1.339
1.346
1.358
1.357
1.355
1.350
1.351
1.345
1.340
1.331
1.330
1.331
1.341
1.340
1.337
1.336
1.323
1.318
1.324
1.315
1.317
1.327
1.321
1.315
1.322
1.326
1.315
1.317
1.324
1.342
1.356
1.355
1.355
1.351
1.349
1.356
1.363
1.368
1.366
1.356
1.338
1.347
1.352
1.343
1.340
1.341
1.341
1.341
1.330
1.325
1.331
1.332
1.336
1.333
1.326
1.326
1.322
1.332
1.337
1.328
1.315
1.319
1.327
1.338
1.336
1.332
1.345
1.347
1.341
1.337
1.328
1.320
1.329
1.349
1.351
1.338
1.337
1.331
1.329
1.320
1.319
1.327
1.328
1.338
1.350
1.370
1.378
1.337
1.329
1.348
1.353
1.340
1.332
1.343
1.348
1.335
1.333
1.342
1.358
1.368
1.376
1.366
1.356
1.351
1.329
1.334
1.355
1.353
1.342
1.343
1.351
1.342
1.330
1.315
1.322
1.332
1.334
1.327
1.335
1.341
1.336
1.323
1.328
1.339
1.344
1.343
1.331
1.320
1.311
1.298
1.284
1.284
1.302
1.322
1.326
1.334
1.335
1.325
1.305
1.300
1.306
1.321
1.330
1.343
1.352
1.340
1.327
1.328
1.330
1.329
1.329
1.334
1.335
1.338
1.337
1.328
1.326
1.325
1.320
1.336
1.338
1.339
1.336
1.322
1.319
1.308
1.319
1.324
1.321
1.324
1.318
1.312
1.307
1.318
1.318
1.295
1.301
1.313
1.319
1.326
1.336
1.325
1.326
1.331
1.329
1.315
1.316
1.327
1.329
1.344
1.346
1.339
1.334
1.313
1.302
1.311
1.326
1.337
1.335
1.326
1.324
1.322
1.319
1.313
1.309
1.315
1.330
1.324
1.325
1.322
1.327
1.342
1.345
1.352
1.366
1.357
1.337
1.329
1.335
1.334
1.332
1.334
1.340
1.339
1.342
1.344
1.340
1.332
1.329
1.326
1.331
1.334
1.329
1.322
1.319
1.317
1.319
1.317
1.314
1.314
1.316
1.318
1.318
1.307
1.307
1.308
1.315
1.310
1.310
1.310
1.303
1.310
1.321
1.323
1.319
1.317
1.323
1.323
1.318
1.329
1.333
1.334
1.324
1.302
1.299
1.303
1.310
1.315
1.324
1.324
1.323
1.313
1.324
1.319
1.320
1.319
1.321
1.328
1.333
1.349
1.362
1.396
1.391
1.339
1.349
1.358
1.356
1.371
1.428
1.420
1.326
1.314
1.321
1.327
1.333
1.337
1.338
1.325
1.321
1.320
1.330
1.318
1.303
1.303
1.310
1.315
1.306
1.320
1.339
1.331
1.309
1.308
1.319
1.323
1.317
1.332
1.347
1.338
1.323
1.315
1.317
1.336
1.353
1.340
1.332
1.334
1.338
1.339
1.342
1.328
1.310
1.307
1.301
1.306
1.315
1.328
1.338
1.331
1.322
1.313
1.306
1.320
1.330
1.320
1.302
1.298
1.304
1.307
1.308
1.323
1.344
1.343
1.327
1.330
1.326
1.314
1.312
1.309
1.326
1.339
1.343
1.323
1.308
1.311
1.316
1.326
1.339
1.343
1.333
1.326
1.324
1.316
1.319
1.323
1.323
1.310
1.304
1.314
1.322
1.316
1.317
1.321
1.321
1.307
1.305
1.309
1.319
1.318
1.320
1.326
1.328
1.317
1.310
1.312
1.317
1.312
1.302
1.300
1.307
1.310
1.304
1.309
1.329
1.326
1.311
1.311
1.306
1.304
1.318
1.334
1.330
1.308
1.308
1.315
1.313
1.316
1.314
1.306
1.306
1.280
1.284
1.284
1.269
1.260
1.242
1.233
1.247
1.250
1.245
1.235
1.224
1.216
1.219
1.214
1.210
1.223
1.218
1.225
1.237
1.238
1.240
1.242
1.251
1.252
1.252
1.254
1.262
1.274
1.266
1.258
1.251
1.240
1.229
1.237
1.236
1.227
1.221
1.216
1.225
1.230
1.231
1.217
1.213
1.222
1.235
1.245
1.246
1.248
1.242
1.228
1.231
1.232
1.237
1.246
1.241
1.239
1.244
1.240
1.236
1.227
1.218
1.228
1.243
1.240
1.238
1.239
1.243
1.243
1.223
1.211
1.222
1.225
1.232
1.226
1.222
1.221
1.219
1.216
1.232
1.234
1.244
1.254
1.246
1.244
1.248
1.235
1.228
1.225
1.226
1.230
1.232
1.233
1.225
1.230
1.239
1.236
1.225
1.222
1.226
1.227
1.232
1.230
1.234
1.238
1.237
1.235
1.246
1.244
1.225
1.219
1.232
1.242
1.239
1.227
1.215
1.218
1.216
1.222
1.223
1.222
1.219
1.215
1.222
1.233
1.237
1.235
1.219
1.218
1.229
1.223
1.229
1.224
1.220
1.222
1.224
1.233
1.229
1.221
1.223
1.231
1.229
1.223
1.228
1.228
1.224
1.225
1.223
1.215
1.216
1.218
1.239
1.259
1.251
1.243
1.235
1.222
1.221
1.224
1.218
1.223
1.229
1.235
1.245
1.249
1.249
1.246
1.229
1.220
1.230
1.242
1.254
1.243
1.235
1.227
1.231
1.234
1.227
1.234
1.238
1.236
1.241
1.250
1.239
1.221
1.220
1.239
1.241
1.232
1.224
1.231
1.223
1.224
1.234
1.233
1.231
1.235
1.229
1.222
1.224
1.233
1.242
1.242
1.239
1.240
1.242
1.232
1.226
1.213
1.217
1.233
1.238
1.235
1.229
1.229
1.221
1.219
1.226
1.240
1.236
1.226
1.225
1.228
1.225
1.238
1.242
1.237
1.239
1.236
1.228
1.228
1.231
1.220
1.222
1.230
1.242
1.250
1.258
1.255
1.259
1.252
1.240
1.242
1.256
1.263
1.252
1.241
1.233
1.220
1.233
1.240
1.241
1.247
1.249
1.250
1.251
1.261
1.265
1.252
1.243
1.231
1.221
1.217
1.218
1.216
1.233
1.231
1.221
1.221
1.215
1.221
1.219
1.230
1.239
1.243
1.256
1.243
1.240
1.240
1.229
1.222
1.227
1.231
1.241
1.248
1.253
1.249
1.233
1.230
1.230
1.232
1.225
1.221
1.227
1.226
1.221
1.218
1.225
1.222
1.214
1.213
1.222
1.219
1.221
1.241
1.246
1.244
1.253
1.237
1.224
1.232
1.242
1.234
1.220
1.207
1.201
1.208
1.227
1.231
1.238
1.237
1.233
1.222
1.212
1.209
1.219
1.235
1.233
1.217
1.218
1.213
1.209
1.215
1.226
1.236
1.233
1.229
1.241
1.242
1.249
1.245
1.231
1.228
1.243
1.242
1.223
1.214
1.223
1.226
1.231
1.235
1.225
1.224
1.233
1.224
1.221
1.230
1.222
1.214
1.224
1.228
1.227
1.228
1.220
1.213
1.214
1.224
1.225
1.206
1.208
1.225
1.243
1.245
1.237
1.229
1.213
1.213
1.220
1.222
1.210
1.220
1.239
1.241
1.244
1.241
1.234
1.232
1.225
1.220
1.222
1.225
1.221
1.218
1.218
1.222
1.225
1.239
1.242
1.242
1.228
1.219
1.231
1.240
1.242
1.247
1.250
1.238
1.246
1.246
1.242
1.228
1.224
1.231
1.237
1.245
1.248
1.251
1.261
1.279
1.313
1.303
1.234
1.217
1.230
1.230
1.234
1.238
1.239
1.239
1.247
1.246
1.238
1.251
1.256
1.248
1.244
1.237
1.242
1.252
1.246
1.250
1.239
1.212
1.213
1.219
1.235
1.242
1.228
1.226
1.231
1.222
1.222
1.230
1.243
1.250
1.240
1.214
1.215
1.220
1.242
1.253
1.246
1.242
1.241
1.225
1.211
1.226
1.236
1.230
1.239
1.248
1.240
1.229
1.222
1.218
1.227
1.237
1.229
1.214
1.219
1.227
1.223
1.225
1.244
1.239
1.230
1.238
1.227
1.226
1.227
1.223
1.227
1.232
1.231
1.238
1.230
1.234
1.235
1.236
1.241
1.245
1.246
1.245
1.258
1.259
1.251
1.253
1.240
1.229
1.236
1.239
1.231
1.225
1.224
1.221
1.223
1.228
1.215
1.218
1.226
1.234
1.241
1.246
1.249
1.246
1.252
1.240
1.221
1.231
1.239
1.230
1.225
1.227
1.232
1.248
1.256
1.246
1.255
1.262
1.246
1.223
1.235
1.241
1.231
1.225
1.231
1.242
1.250
1.252
1.257
1.248
1.225
1.218
1.212
1.224
1.246
1.259
1.255
1.267
1.263
1.241
1.231
1.228
1.225
1.209
1.212
1.228
1.231
1.228
1.238
1.249
1.228
1.217
1.220
1.215
1.217
1.232
1.241
1.238
1.242
1.247
1.239
1.229
1.223
1.225
1.231
1.234
1.255
1.243
1.222
1.222
1.218
1.218
1.226
1.223
1.222
1.215
1.224
1.232
1.231
1.233
1.231
1.213
1.218
1.214
1.209
1.212
1.225
1.237
1.234
1.218
1.215
1.220
1.234
1.241
1.237
1.239
1.239
1.207
1.201
1.215
1.217
1.218
1.224
1.234
1.258
1.274
1.271
1.255
1.251
1.251
1.246
1.249
1.233
1.213
1.213
1.227
1.231
1.229
1.229
1.229
1.230
1.243
1.240
1.219
1.212
1.219
1.232
1.247
1.256
1.247
1.245
1.243
1.228
1.223
1.230
1.235
1.250
1.262
1.252
1.239
1.222
1.216
1.224
1.230
1.240
1.241
1.238
1.219
1.223
1.219
1.218
1.228
1.237
1.228
1.229
1.230
1.227
1.233
1.240
1.242
1.256
1.253
1.247
1.236
1.233
1.242
1.252
1.264
1.269
1.263
1.255
1.239
1.252
1.250
1.243
1.242
1.237
1.230
1.220
1.221
1.223
1.215
1.226
1.231
1.223
1.216
1.215
1.219
1.222
1.226
1.233
1.242
1.261
1.276
1.269
1.243
1.233
1.217
1.204
1.209
1.229
1.244
1.248
1.242
1.230
1.230
1.251
1.257
1.242
1.244
1.264
1.265
1.268
1.268
1.257
1.242
1.232
1.234
1.239
1.245
1.257
1.256
1.232
1.226
1.226
1.213
1.217
1.236
1.236
1.226
1.231
1.236
1.237
1.247
1.237
1.224
1.229
1.235
1.234
1.226
1.233
1.242
1.246
1.241
1.248
1.245
1.241
1.234
1.234
1.243
1.242
1.233
1.238
1.247
1.256
1.250
1.243
1.241
1.257
1.282
1.275
1.268
1.273
1.250
1.242
1.242
1.238
1.234
1.229
1.241
1.247
1.245
1.241
1.237
1.240
1.242
1.240
1.224
1.219
1.226
1.229
1.232
1.237
1.227
1.218
1.228
1.246
1.243
1.242
1.235
1.236
1.247
1.259
1.257
1.244
1.233
1.238
1.266
1.264
1.253
1.248
1.252
1.258
1.242
1.240
1.241
1.246
1.242
1.239
1.242
1.251
1.254
1.245
1.237
1.229
1.242
1.253
1.246
1.238
1.231
1.218
1.214
1.227
1.242
1.236
1.241
1.242
1.236
1.241
1.246
1.243
1.240
1.254
1.264
1.253
1.230
1.226
1.234
1.246
1.251
1.250
1.244
1.232
1.226
1.241
1.240
1.227
1.226
1.222
1.233
1.246
1.244
1.240
1.246
1.243
1.231
1.229
1.230
1.239
1.243
1.223
1.220
1.233
1.235
1.235
1.239
1.244
1.251
1.260
1.255
1.237
1.232
1.223
1.220
1.223
1.228
1.225
1.230
1.228
1.223
1.228
1.232
1.238
1.231
1.224
1.235
1.248
1.241
1.218
1.212
1.219
1.224
1.233
1.230
1.224
1.219
1.220
1.214
1.214
1.222
1.227
1.234
1.240
1.242
1.242
1.246
1.251
1.261
1.261
1.248
1.245
1.240
1.230
1.230
1.225
1.219
1.230
1.237
1.223
1.224
1.243
