Intensity BB8.2,,C:\Users\Brend\Desktop\LED Spectras v2\Blinds\-Interference\Spectrometer Data.sp,,,BB8.2,
1.601,,2018-07-12 09:38:17,,Integration Time,100 ms,
1.587,,Analyze Light,,Number of Scans to Average,25,
1.585,,,,Smoothing,0,
1.606
1.615
1.615
1.627
1.628
1.621
1.631
1.633
1.632
1.631
1.646
1.656
1.651
1.633
1.632
1.633
1.634
1.649
1.662
1.673
1.669
1.671
1.681
1.682
1.683
1.691
1.705
1.707
1.707
1.698
1.695
1.679
1.674
1.677
1.684
1.687
1.692
1.693
1.703
1.696
1.716
1.716
1.718
1.733
1.747
1.747
1.746
1.747
1.734
1.737
1.746
1.741
1.734
1.736
1.749
1.760
1.756
1.762
1.779
1.783
1.791
1.791
1.794
1.787
1.788
1.790
1.803
1.809
1.810
1.807
1.811
1.815
1.836
1.851
1.851
1.851
1.841
1.829
1.828
1.837
1.830
1.825
1.849
1.874
1.887
1.872
1.871
1.862
1.849
1.843
1.850
1.859
1.857
1.876
1.881
1.872
1.874
1.876
1.883
1.880
1.891
1.892
1.880
1.889
1.916
1.922
1.916
1.922
1.924
1.926
1.931
1.937
1.923
1.914
1.925
1.935
1.932
1.932
1.937
1.922
1.945
1.961
1.950
1.955
1.972
1.966
1.982
1.995
1.991
1.981
1.981
1.991
1.999
1.992
2.001
1.997
1.999
1.992
2.004
2.000
2.006
2.001
2.006
1.998
1.999
1.999
2.005
2.006
2.013
2.013
2.021
2.030
2.042
2.029
2.035
2.038
2.038
2.042
2.037
2.034
2.040
2.034
2.032
2.021
2.028
2.016
2.034
2.041
2.047
2.051
2.063
2.053
2.042
2.054
2.058
2.056
2.064
2.065
2.058
2.043
2.068
2.084
2.112
2.117
2.104
2.103
2.095
2.110
2.148
2.156
2.163
2.167
2.193
2.208
2.234
2.257
2.274
2.280
2.304
2.321
2.338
2.372
2.393
2.412
2.448
2.489
2.536
2.568
2.634
2.693
2.746
2.778
2.831
2.876
2.940
3.029
3.112
3.175
3.273
3.360
3.466
3.534
3.629
3.730
3.853
3.954
4.082
4.198
4.336
4.489
4.654
4.805
4.970
5.130
5.301
5.470
5.683
5.853
6.081
6.288
6.521
6.751
7.007
7.261
7.547
7.785
8.067
8.366
8.673
8.966
9.320
9.642
9.999
10.356
10.777
11.169
11.629
12.080
12.547
13.018
13.525
14.020
14.558
15.149
15.761
16.362
17.036
17.704
18.449
19.176
19.934
20.715
21.561
22.394
23.258
24.151
25.112
26.106
27.089
28.092
29.134
30.153
31.175
32.232
33.336
34.447
35.618
36.722
37.850
38.928
40.061
41.188
42.254
43.242
44.213
45.174
46.070
46.905
47.682
48.415
49.049
49.643
50.154
50.562
50.967
51.271
51.494
51.672
51.734
51.677
51.552
51.373
51.056
50.717
50.315
49.819
49.234
48.664
48.009
47.296
46.479
45.610
44.762
43.892
42.971
42.052
41.128
40.175
39.253
38.344
37.441
36.556
35.649
34.806
33.922
33.074
32.295
31.599
30.860
30.196
29.509
28.905
28.315
27.755
27.239
26.710
26.210
25.742
25.288
24.865
24.472
24.082
23.690
23.292
22.917
22.505
22.113
21.755
21.436
21.075
20.711
20.380
20.035
19.702
19.348
18.994
18.647
18.296
17.951
17.584
17.251
16.908
16.557
16.165
15.793
15.415
15.037
14.642
14.311
13.993
13.671
13.268
12.905
12.575
12.248
11.876
11.545
11.228
10.950
10.643
10.359
10.078
9.821
9.560
9.346
9.101
8.857
8.613
8.402
8.171
7.973
7.756
7.575
7.370
7.236
7.065
6.900
6.743
6.591
6.421
6.259
6.102
5.992
5.856
5.746
5.607
5.476
5.329
5.213
5.062
4.960
4.858
4.779
4.668
4.581
4.449
4.357
4.259
4.175
4.072
3.985
3.877
3.798
3.694
3.610
3.523
3.448
3.361
3.304
3.242
3.174
3.087
3.006
2.926
2.889
2.802
2.736
2.704
2.673
2.590
2.530
2.488
2.462
2.420
2.390
2.357
2.326
2.286
2.249
2.210
2.168
2.142
2.126
2.103
2.096
2.063
2.029
2.001
2.009
1.993
1.956
1.927
1.916
1.899
1.873
1.875
1.883
1.865
1.832
1.811
1.800
1.773
1.759
1.739
1.728
1.727
1.727
1.732
1.723
1.704
1.698
1.682
1.673
1.647
1.639
1.638
1.644
1.654
1.661
1.649
1.644
1.629
1.623
1.619
1.634
1.622
1.609
1.606
1.598
1.580
1.575
1.572
1.579
1.574
1.568
1.541
1.545
1.546
1.548
1.525
1.524
1.513
1.491
1.495
1.494
1.489
1.499
1.492
1.491
1.474
1.462
1.475
1.482
1.463
1.463
1.459
1.464
1.461
1.455
1.453
1.459
1.458
1.441
1.423
1.440
1.438
1.431
1.425
1.424
1.420
1.420
1.422
1.419
1.434
1.446
1.432
1.428
1.422
1.421
1.414
1.406
1.398
1.399
1.406
1.410
1.412
1.398
1.401
1.421
1.415
1.402
1.387
1.387
1.386
1.395
1.395
1.388
1.373
1.374
1.383
1.393
1.406
1.410
1.403
1.393
1.398
1.391
1.379
1.372
1.367
1.379
1.381
1.367
1.359
1.352
1.355
1.363
1.368
1.368
1.357
1.363
1.352
1.351
1.367
1.370
1.376
1.385
1.380
1.377
1.368
1.362
1.363
1.376
1.385
1.378
1.368
1.353
1.345
1.353
1.364
1.349
1.335
1.342
1.360
1.372
1.376
1.374
1.368
1.362
1.356
1.354
1.344
1.349
1.365
1.370
1.375
1.380
1.376
1.378
1.372
1.359
1.333
1.346
1.357
1.359
1.347
1.347
1.345
1.346
1.353
1.346
1.355
1.370
1.378
1.380
1.367
1.358
1.344
1.328
1.337
1.349
1.352
1.358
1.381
1.400
1.387
1.370
1.360
1.365
1.364
1.375
1.382
1.374
1.378
1.382
1.382
1.368
1.368
1.365
1.364
1.371
1.357
1.354
1.353
1.343
1.346
1.347
1.334
1.345
1.341
1.343
1.348
1.350
1.338
1.342
1.359
1.354
1.349
1.349
1.344
1.348
1.359
1.366
1.370
1.376
1.374
1.361
1.354
1.363
1.358
1.345
1.344
1.362
1.359
1.350
1.335
1.341
1.349
1.346
1.339
1.339
1.341
1.342
1.360
1.368
1.360
1.353
1.361
1.350
1.345
1.339
1.323
1.334
1.333
1.344
1.353
1.353
1.353
1.351
1.341
1.328
1.331
1.342
1.350
1.334
1.321
1.314
1.325
1.346
1.356
1.344
1.332
1.323
1.325
1.327
1.329
1.343
1.347
1.344
1.343
1.343
1.322
1.321
1.332
1.339
1.338
1.349
1.353
1.355
1.348
1.334
1.322
1.326
1.329
1.326
1.317
1.321
1.323
1.331
1.327
1.332
1.338
1.336
1.331
1.332
1.331
1.333
1.332
1.320
1.324
1.334
1.359
1.375
1.365
1.353
1.350
1.331
1.326
1.326
1.333
1.348
1.338
1.330
1.326
1.323
1.313
1.309
1.334
1.347
1.345
1.346
1.339
1.331
1.330
1.321
1.318
1.327
1.332
1.326
1.322
1.317
1.307
1.320
1.329
1.332
1.333
1.330
1.334
1.344
1.353
1.348
1.338
1.337
1.336
1.337
1.329
1.330
1.326
1.326
1.327
1.334
1.327
1.305
1.302
1.310
1.304
1.294
1.304
1.300
1.295
1.311
1.323
1.313
1.305
1.315
1.327
1.341
1.341
1.341
1.323
1.320
1.326
1.336
1.346
1.353
1.343
1.329
1.341
1.340
1.340
1.355
1.357
1.352
1.339
1.327
1.323
1.322
1.323
1.322
1.326
1.323
1.309
1.311
1.322
1.330
1.324
1.315
1.314
1.315
1.334
1.339
1.334
1.344
1.339
1.339
1.330
1.321
1.319
1.331
1.347
1.340
1.326
1.321
1.314
1.322
1.316
1.315
1.316
1.321
1.332
1.339
1.355
1.362
1.332
1.327
1.338
1.346
1.334
1.331
1.342
1.343
1.329
1.329
1.334
1.348
1.356
1.355
1.345
1.344
1.339
1.320
1.324
1.342
1.333
1.323
1.318
1.319
1.318
1.317
1.315
1.318
1.318
1.324
1.325
1.327
1.328
1.325
1.315
1.317
1.322
1.321
1.314
1.308
1.299
1.292
1.292
1.289
1.284
1.302
1.319
1.326
1.323
1.318
1.309
1.291
1.291
1.300
1.319
1.331
1.344
1.342
1.318
1.323
1.322
1.316
1.310
1.305
1.306
1.309
1.319
1.335
1.327
1.318
1.314
1.307
1.317
1.321
1.327
1.335
1.316
1.318
1.308
1.313
1.321
1.317
1.323
1.326
1.316
1.301
1.309
1.307
1.287
1.290
1.295
1.299
1.306
1.317
1.316
1.326
1.331
1.320
1.302
1.298
1.310
1.324
1.336
1.337
1.329
1.316
1.302
1.298
1.295
1.304
1.319
1.322
1.310
1.311
1.306
1.306
1.309
1.304
1.311
1.333
1.325
1.322
1.315
1.318
1.325
1.323
1.329
1.349
1.334
1.311
1.310
1.313
1.324
1.331
1.330
1.336
1.343
1.342
1.334
1.330
1.327
1.323
1.318
1.326
1.325
1.307
1.296
1.298
1.298
1.284
1.284
1.287
1.295
1.310
1.320
1.316
1.300
1.301
1.300
1.302
1.290
1.291
1.291
1.288
1.291
1.297
1.290
1.287
1.296
1.307
1.308
1.303
1.313
1.320
1.322
1.310
1.287
1.286
1.291
1.293
1.301
1.306
1.308
1.318
1.304
1.317
1.314
1.313
1.319
1.322
1.321
1.324
1.337
1.347
1.382
1.385
1.332
1.340
1.348
1.349
1.365
1.415
1.399
1.305
1.302
1.307
1.318
1.327
1.332
1.328
1.314
1.305
1.306
1.315
1.307
1.293
1.290
1.295
1.293
1.289
1.299
1.315
1.311
1.307
1.296
1.312
1.323
1.318
1.323
1.335
1.328
1.314
1.299
1.299
1.315
1.330
1.326
1.318
1.319
1.325
1.325
1.323
1.312
1.296
1.288
1.285
1.287
1.299
1.315
1.326
1.316
1.314
1.309
1.306
1.312
1.317
1.309
1.299
1.294
1.302
1.300
1.295
1.304
1.323
1.320
1.312
1.318
1.322
1.308
1.309
1.318
1.320
1.333
1.337
1.316
1.297
1.295
1.303
1.327
1.340
1.342
1.326
1.307
1.307
1.303
1.305
1.315
1.312
1.297
1.295
1.309
1.312
1.312
1.301
1.306
1.305
1.294
1.300
1.305
1.318
1.320
1.320
1.327
1.329
1.321
1.313
1.307
1.304
1.300
1.299
1.296
1.307
1.302
1.291
1.289
1.308
1.317
1.299
1.304
1.306
1.298
1.303
1.321
1.313
1.290
1.298
1.302
1.299
1.314
1.311
1.303
1.305
1.276
1.270
1.271
1.257
1.245
1.241
1.242
1.249
1.253
1.250
1.238
1.228
1.224
1.225
1.230
1.226
1.232
1.228
1.236
1.243
1.243
1.249
1.247
1.250
1.246
1.251
1.258
1.266
1.276
1.266
1.253
1.247
1.231
1.226
1.235
1.242
1.239
1.228
1.225
1.237
1.245
1.242
1.222
1.214
1.225
1.238
1.244
1.254
1.253
1.243
1.227
1.229
1.232
1.242
1.251
1.248
1.251
1.248
1.238
1.242
1.236
1.227
1.233
1.242
1.234
1.233
1.242
1.255
1.247
1.232
1.219
1.223
1.230
1.235
1.229
1.231
1.228
1.225
1.222
1.229
1.236
1.247
1.261
1.248
1.242
1.247
1.241
1.231
1.223
1.231
1.232
1.230
1.237
1.230
1.239
1.244
1.242
1.229
1.223
1.225
1.227
1.230
1.227
1.242
1.245
1.237
1.239
1.254
1.247
1.233
1.223
1.238
1.236
1.222
1.210
1.204
1.212
1.216
1.224
1.233
1.231
1.226
1.226
1.229
1.233
1.247
1.255
1.244
1.241
1.238
1.228
1.238
1.230
1.232
1.238
1.239
1.239
1.236
1.230
1.238
1.244
1.241
1.234
1.231
1.232
1.225
1.219
1.223
1.223
1.227
1.227
1.237
1.257
1.257
1.244
1.229
1.219
1.223
1.230
1.231
1.235
1.225
1.230
1.242
1.247
1.254
1.252
1.236
1.223
1.234
1.245
1.261
1.253
1.237
1.231
1.221
1.219
1.222
1.230
1.239
1.237
1.245
1.252
1.236
1.220
1.222
1.235
1.232
1.226
1.229
1.227
1.225
1.235
1.242
1.244
1.244
1.240
1.236
1.224
1.222
1.235
1.242
1.237
1.243
1.240
1.242
1.243
1.226
1.210
1.210
1.224
1.233
1.238
1.236
1.239
1.239
1.233
1.238
1.247
1.242
1.238
1.231
1.228
1.225
1.239
1.247
1.242
1.246
1.249
1.243
1.239
1.240
1.229
1.221
1.234
1.234
1.239
1.244
1.242
1.245
1.240
1.234
1.236
1.254
1.268
1.263
1.255
1.252
1.235
1.243
1.251
1.254
1.259
1.256
1.250
1.244
1.250
1.255
1.252
1.241
1.231
1.226
1.222
1.219
1.214
1.220
1.226
1.219
1.222
1.223
1.228
1.225
1.236
1.245
1.242
1.246
1.242
1.239
1.241
1.234
1.230
1.238
1.236
1.232
1.243
1.251
1.244
1.233
1.226
1.225
1.228
1.225
1.226
1.228
1.225
1.212
1.209
1.222
1.218
1.215
1.216
1.218
1.217
1.218
1.233
1.243
1.243
1.246
1.237
1.237
1.245
1.257
1.249
1.231
1.219
1.215
1.217
1.237
1.244
1.251
1.252
1.245
1.231
1.222
1.219
1.225
1.241
1.241
1.229
1.227
1.221
1.219
1.214
1.220
1.230
1.228
1.227
1.238
1.242
1.252
1.245
1.234
1.232
1.249
1.246
1.233
1.223
1.221
1.220
1.228
1.237
1.233
1.229
1.231
1.227
1.226
1.226
1.218
1.216
1.229
1.238
1.242
1.244
1.228
1.217
1.220
1.225
1.229
1.222
1.225
1.238
1.247
1.247
1.241
1.234
1.222
1.220
1.220
1.220
1.216
1.218
1.235
1.243
1.244
1.237
1.236
1.235
1.222
1.215
1.219
1.225
1.224
1.212
1.213
1.213
1.224
1.225
1.231
1.238
1.235
1.227
1.237
1.241
1.236
1.243
1.244
1.236
1.238
1.233
1.228
1.224
1.218
1.223
1.238
1.248
1.245
1.245
1.259
1.271
1.300
1.294
1.235
1.210
1.224
1.233
1.239
1.243
1.235
1.231
1.249
1.249
1.246
1.247
1.244
1.242
1.237
1.239
1.245
1.247
1.235
1.247
1.242
1.214
1.217
1.220
1.229
1.227
1.215
1.217
1.230
1.226
1.220
1.226
1.237
1.242
1.236
1.218
1.219
1.229
1.249
1.265
1.259
1.248
1.245
1.232
1.215
1.221
1.235
1.220
1.232
1.244
1.238
1.228
1.227
1.230
1.235
1.237
1.228
1.215
1.219
1.228
1.226
1.234
1.257
1.255
1.239
1.243
1.240
1.233
1.233
1.229
1.236
1.235
1.227
1.232
1.230
1.235
1.236
1.235
1.243
1.246
1.242
1.251
1.265
1.261
1.257
1.263
1.241
1.223
1.231
1.238
1.232
1.221
1.220
1.224
1.218
1.221
1.218
1.220
1.232
1.231
1.237
1.242
1.242
1.240
1.249
1.233
1.213
1.230
1.229
1.217
1.214
1.219
1.230
1.255
1.257
1.243
1.257
1.265
1.246
1.225
1.229
1.239
1.227
1.224
1.228
1.235
1.242
1.242
1.244
1.237
1.225
1.224
1.224
1.235
1.258
1.272
1.271
1.275
1.261
1.247
1.239
1.236
1.236
1.222
1.218
1.232
1.237
1.236
1.247
1.255
1.246
1.223
1.225
1.222
1.222
1.234
1.254
1.247
1.253
1.261
1.254
1.245
1.235
1.235
1.237
1.231
1.249
1.248
1.230
1.224
1.223
1.229
1.242
1.242
1.237
1.227
1.242
1.255
1.252
1.250
1.244
1.218
1.226
1.219
1.207
1.208
1.224
1.238
1.239
1.228
1.221
1.222
1.232
1.241
1.237
1.242
1.243
1.216
1.218
1.231
1.226
1.214
1.218
1.232
1.256
1.267
1.255
1.242
1.237
1.239
1.249
1.249
1.236
1.215
1.217
1.229
1.230
1.230
1.223
1.215
1.215
1.224
1.231
1.219
1.220
1.223
1.234
1.252
1.258
1.253
1.248
1.241
1.233
1.228
1.233
1.242
1.250
1.255
1.252
1.242
1.226
1.221
1.219
1.227
1.242
1.247
1.241
1.222
1.225
1.227
1.233
1.247
1.249
1.242
1.242
1.241
1.237
1.239
1.244
1.239
1.255
1.258
1.248
1.230
1.225
1.235
1.244
1.259
1.267
1.255
1.242
1.233
1.255
1.262
1.252
1.247
1.243
1.235
1.228
1.225
1.226
1.220
1.225
1.234
1.228
1.217
1.216
1.219
1.223
1.228
1.224
1.230
1.257
1.273
1.266
1.249
1.238
1.223
1.222
1.219
1.236
1.253
1.249
1.237
1.226
1.229
1.251
1.259
1.243
1.248
1.260
1.263
1.281
1.282
1.269
1.251
1.242
1.245
1.248
1.252
1.263
1.258
1.229
1.223
1.222
1.211
1.215
1.228
1.232
1.225
1.229
1.231
1.235
1.249
1.235
1.216
1.222
1.224
1.228
1.223
1.232
1.243
1.239
1.232
1.246
1.249
1.242
1.237
1.244
1.252
1.254
1.247
1.252
1.252
1.256
1.259
1.250
1.251
1.268
1.282
1.269
1.258
1.267
1.253
1.254
1.244
1.236
1.230
1.233
1.245
1.248
1.246
1.240
1.233
1.232
1.238
1.238
1.226
1.224
1.235
1.240
1.238
1.229
1.218
1.224
1.235
1.244
1.247
1.247
1.235
1.233
1.245
1.256
1.254
1.238
1.233
1.235
1.255
1.264
1.253
1.244
1.239
1.251
1.244
1.236
1.235
1.232
1.228
1.231
1.242
1.249
1.253
1.248
1.228
1.235
1.253
1.263
1.262
1.253
1.243
1.220
1.226
1.247
1.252
1.249
1.257
1.259
1.246
1.247
1.254
1.240
1.249
1.270
1.276
1.263
1.239
1.240
1.246
1.259
1.252
1.244
1.242
1.228
1.219
1.228
1.222
1.215
1.217
1.213
1.230
1.242
1.243
1.246
1.254
1.249
1.235
1.232
1.225
1.241
1.244
1.232
1.223
1.235
1.242
1.237
1.241
1.251
1.256
1.257
1.249
1.243
1.235
1.243
1.242
1.241
1.229
1.218
1.225
1.224
1.210
1.222
1.236
1.247
1.242
1.237
1.243
1.252
1.245
1.227
1.223
1.226
1.226
1.232
1.226
1.224
1.221
1.221
1.216
1.216
1.227
1.231
1.231
1.237
1.241
1.246
1.254
1.269
1.270
1.266
1.260
1.251
1.245
1.228
1.222
1.220
1.223
1.238
1.243
1.228
1.226
1.238
