Wavelength (nm),Intensity ββ8.2,,C:\Users\Brend\Desktop\LED Spectras v2\Blinds\-Interference\Spectrometer Data (Alt).sp,,,ββ8.2,
379.792,1.480,,2018-07-11 15:06:43,,Integration Time,100 ms,
380.000,1.481,,Analyze Light,,Number of Scans to Average,25,
380.209,1.477,,,,Smoothing,1,
380.418,1.479
380.627,1.486
380.837,1.499
381.048,1.503
381.259,1.507
381.471,1.511
381.683,1.515
381.896,1.516
382.110,1.514
382.324,1.522
382.538,1.538
382.753,1.551
382.969,1.548
383.185,1.540
383.402,1.531
383.619,1.540
383.837,1.549
384.055,1.564
384.274,1.568
384.493,1.571
384.712,1.574
384.932,1.583
385.153,1.590
385.374,1.593
385.596,1.596
385.818,1.604
386.040,1.616
386.263,1.627
386.487,1.628
386.710,1.621
386.935,1.610
387.159,1.605
387.385,1.604
387.610,1.608
387.836,1.613
388.063,1.622
388.289,1.628
388.517,1.631
388.744,1.632
388.972,1.640
389.201,1.647
389.430,1.654
389.659,1.656
389.889,1.664
390.119,1.669
390.349,1.676
390.580,1.677
390.811,1.676
391.042,1.672
391.274,1.677
391.507,1.687
391.739,1.694
391.972,1.693
392.205,1.692
392.439,1.692
392.673,1.694
392.907,1.697
393.142,1.705
393.377,1.717
393.612,1.730
393.848,1.740
394.084,1.749
394.320,1.754
394.557,1.760
394.794,1.759
395.031,1.765
395.269,1.772
395.507,1.783
395.745,1.785
395.983,1.787
396.222,1.789
396.461,1.797
396.700,1.802
396.940,1.804
397.180,1.804
397.420,1.804
397.660,1.805
397.901,1.806
398.142,1.811
398.383,1.813
398.625,1.813
398.866,1.817
399.108,1.834
399.351,1.850
399.593,1.855
399.836,1.850
400.079,1.846
400.322,1.848
400.566,1.850
400.809,1.853
401.053,1.860
401.298,1.864
401.542,1.869
401.787,1.876
402.031,1.882
402.277,1.886
402.522,1.888
402.767,1.892
403.013,1.888
403.259,1.884
403.505,1.882
403.752,1.886
403.998,1.893
404.245,1.903
404.492,1.918
404.739,1.926
404.986,1.926
405.234,1.929
405.482,1.939
405.730,1.945
405.978,1.943
406.226,1.937
406.475,1.932
406.723,1.933
406.972,1.940
407.221,1.952
407.470,1.957
407.720,1.961
407.969,1.959
408.219,1.960
408.469,1.960
408.719,1.965
408.969,1.971
409.219,1.979
409.470,1.986
409.720,1.993
409.971,2.003
410.222,2.014
410.473,2.019
410.724,2.019
410.976,2.015
411.227,2.019
411.479,2.023
411.731,2.031
411.983,2.038
412.235,2.043
412.487,2.046
412.740,2.052
412.992,2.059
413.245,2.069
413.497,2.069
413.750,2.069
414.003,2.065
414.257,2.064
414.510,2.061
414.763,2.063
415.017,2.070
415.270,2.080
415.524,2.084
415.778,2.079
416.032,2.072
416.286,2.078
416.540,2.093
416.794,2.110
417.049,2.115
417.303,2.116
417.558,2.118
417.812,2.122
418.067,2.124
418.322,2.125
418.577,2.121
418.832,2.121
419.088,2.123
419.343,2.131
419.598,2.131
419.854,2.134
420.109,2.133
420.365,2.140
420.621,2.151
420.876,2.163
421.132,2.169
421.388,2.165
421.645,2.161
421.901,2.164
422.157,2.165
422.413,2.165
422.670,2.165
422.926,2.171
423.183,2.178
423.439,2.186
423.696,2.188
423.953,2.203
424.210,2.219
424.467,2.229
424.724,2.225
424.981,2.217
425.238,2.223
425.495,2.236
425.753,2.253
426.010,2.264
426.267,2.270
426.525,2.283
426.782,2.298
427.040,2.314
427.298,2.327
427.555,2.348
427.813,2.371
428.071,2.397
428.329,2.416
428.587,2.440
428.845,2.468
429.103,2.505
429.361,2.538
429.619,2.573
429.878,2.605
430.136,2.648
430.394,2.687
430.653,2.736
430.911,2.789
431.170,2.853
431.428,2.911
431.687,2.968
431.946,3.023
432.204,3.092
432.463,3.165
432.722,3.240
432.981,3.313
433.240,3.401
433.499,3.497
433.758,3.601
434.017,3.696
434.276,3.789
434.535,3.880
434.794,3.987
435.053,4.105
435.312,4.244
435.572,4.375
435.831,4.518
436.090,4.670
436.350,4.843
436.609,5.020
436.869,5.206
437.128,5.391
437.388,5.583
437.647,5.775
437.907,5.979
438.166,6.182
438.426,6.393
438.686,6.608
438.946,6.834
439.205,7.068
439.465,7.323
439.725,7.602
439.985,7.902
440.245,8.197
440.505,8.493
440.765,8.779
441.025,9.086
441.285,9.398
441.545,9.727
441.805,10.052
442.065,10.393
442.325,10.757
442.585,11.149
442.846,11.543
443.106,11.951
443.366,12.370
443.626,12.806
443.887,13.245
444.147,13.709
444.407,14.183
444.668,14.674
444.928,15.176
445.189,15.708
445.449,16.249
445.710,16.817
445.970,17.411
446.231,18.036
446.491,18.679
446.752,19.346
447.012,20.055
447.273,20.781
447.534,21.547
447.794,22.323
448.055,23.146
448.316,24.012
448.577,24.940
448.837,25.906
449.098,26.904
449.359,27.943
449.620,29.008
449.881,30.102
450.142,31.219
450.403,32.387
450.664,33.620
450.924,34.920
451.185,36.283
451.446,37.679
451.707,39.110
451.969,40.578
452.230,42.078
452.491,43.604
452.752,45.149
453.013,46.723
453.274,48.315
453.535,49.877
453.796,51.404
454.058,52.905
454.319,54.411
454.580,55.906
454.841,57.360
455.103,58.746
455.364,60.058
455.625,61.325
455.887,62.532
456.148,63.682
456.409,64.740
456.671,65.703
456.932,66.561
457.194,67.308
457.455,67.941
457.716,68.438
457.978,68.808
458.239,69.057
458.501,69.193
458.763,69.215
459.024,69.126
459.286,68.926
459.547,68.603
459.809,68.139
460.071,67.521
460.332,66.791
460.594,65.966
460.856,65.092
461.117,64.125
461.379,63.080
461.641,61.951
461.903,60.788
462.164,59.577
462.426,58.334
462.688,57.034
462.950,55.720
463.212,54.423
463.474,53.166
463.736,51.910
463.998,50.646
464.260,49.404
464.522,48.233
464.784,47.123
465.046,46.035
465.308,44.988
465.570,43.972
465.832,43.005
466.094,42.070
466.356,41.183
466.618,40.361
466.880,39.556
467.142,38.780
467.405,38.026
467.667,37.326
467.929,36.659
468.191,36.018
468.454,35.395
468.716,34.801
468.978,34.219
469.241,33.643
469.503,33.065
469.765,32.512
470.028,31.982
470.290,31.476
470.552,30.994
470.815,30.518
471.077,30.039
471.340,29.550
471.602,29.063
471.865,28.590
472.128,28.114
472.390,27.647
472.653,27.173
472.915,26.688
473.178,26.200
473.441,25.711
473.703,25.223
473.966,24.731
474.229,24.225
474.492,23.713
474.755,23.181
475.017,22.671
475.280,22.155
475.543,21.672
475.806,21.163
476.069,20.649
476.332,20.125
476.595,19.616
476.858,19.115
477.121,18.609
477.384,18.108
477.647,17.620
477.910,17.135
478.173,16.668
478.436,16.218
478.699,15.790
478.962,15.362
479.226,14.949
479.489,14.541
479.752,14.138
480.015,13.736
480.279,13.356
480.542,13.005
480.805,12.673
481.069,12.340
481.332,12.014
481.595,11.692
481.859,11.408
482.122,11.125
482.386,10.851
482.649,10.566
482.913,10.305
483.177,10.043
483.440,9.788
483.704,9.520
483.967,9.278
484.231,9.061
484.495,8.869
484.759,8.678
485.022,8.478
485.286,8.274
485.550,8.078
485.814,7.870
486.078,7.671
486.342,7.470
486.606,7.307
486.869,7.155
487.133,7.019
487.397,6.874
487.662,6.726
487.926,6.568
488.190,6.412
488.454,6.247
488.718,6.094
488.982,5.939
489.246,5.800
489.511,5.651
489.775,5.514
490.039,5.374
490.304,5.243
490.568,5.102
490.832,4.973
491.097,4.838
491.361,4.709
491.626,4.573
491.890,4.451
492.155,4.334
492.419,4.231
492.684,4.119
492.949,4.011
493.213,3.901
493.478,3.809
493.743,3.708
494.008,3.594
494.272,3.474
494.537,3.373
494.802,3.293
495.067,3.230
495.332,3.161
495.597,3.093
495.862,3.009
496.127,2.927
496.392,2.848
496.657,2.783
496.922,2.724
497.187,2.667
497.452,2.610
497.718,2.565
497.983,2.519
498.248,2.469
498.513,2.411
498.779,2.369
499.044,2.329
499.310,2.289
499.575,2.242
499.841,2.203
500.106,2.169
500.372,2.133
500.637,2.101
500.903,2.080
501.168,2.059
501.434,2.033
501.700,1.998
501.966,1.969
502.231,1.942
502.497,1.914
502.763,1.884
503.029,1.856
503.295,1.834
503.561,1.816
503.827,1.802
504.093,1.792
504.359,1.780
504.625,1.768
504.891,1.748
505.157,1.731
505.423,1.708
505.690,1.687
505.956,1.665
506.222,1.652
506.489,1.651
506.755,1.656
507.021,1.655
507.288,1.646
507.554,1.629
507.821,1.616
508.087,1.606
508.354,1.608
508.621,1.601
508.887,1.580
509.154,1.558
509.421,1.536
509.687,1.519
509.954,1.503
510.221,1.497
510.488,1.508
510.755,1.517
511.022,1.519
511.289,1.496
511.556,1.465
511.823,1.441
512.090,1.435
512.357,1.434
512.624,1.439
512.891,1.440
513.159,1.437
513.426,1.427
513.693,1.419
513.960,1.414
514.228,1.417
514.495,1.412
514.763,1.401
515.030,1.384
515.298,1.374
515.565,1.370
515.833,1.367
516.100,1.364
516.368,1.366
516.636,1.367
516.904,1.367
517.171,1.359
517.439,1.355
517.707,1.348
517.975,1.346
518.243,1.344
518.511,1.340
518.779,1.330
519.047,1.326
519.315,1.327
519.583,1.329
519.851,1.321
520.119,1.313
520.387,1.306
520.656,1.303
520.924,1.302
521.192,1.300
521.461,1.297
521.729,1.298
521.997,1.303
522.266,1.308
522.534,1.305
522.803,1.302
523.071,1.298
523.340,1.291
523.609,1.281
523.877,1.269
524.146,1.264
524.415,1.264
524.684,1.271
524.952,1.275
525.221,1.277
525.490,1.283
525.759,1.289
526.028,1.292
526.297,1.285
526.566,1.275
526.835,1.265
527.104,1.262
527.373,1.263
527.642,1.262
527.912,1.254
528.181,1.243
528.450,1.239
528.719,1.245
528.989,1.257
529.258,1.264
529.528,1.266
529.797,1.262
530.067,1.258
530.336,1.249
530.606,1.242
530.875,1.237
531.145,1.236
531.414,1.239
531.684,1.247
531.954,1.253
532.224,1.251
532.493,1.239
532.763,1.234
533.033,1.233
533.303,1.237
533.573,1.235
533.843,1.226
534.113,1.216
534.383,1.211
534.653,1.218
534.923,1.228
535.193,1.240
535.463,1.249
535.733,1.252
536.004,1.247
536.274,1.238
536.544,1.228
536.814,1.223
537.085,1.224
537.355,1.230
537.626,1.236
537.896,1.233
538.166,1.225
538.437,1.218
538.707,1.216
538.978,1.217
539.249,1.219
539.519,1.219
539.790,1.216
540.061,1.214
540.331,1.213
540.602,1.214
540.873,1.213
541.144,1.215
541.414,1.214
541.685,1.216
541.956,1.215
542.227,1.220
542.498,1.220
542.769,1.220
543.040,1.221
543.311,1.225
543.582,1.229
543.853,1.228
544.124,1.228
544.396,1.229
544.667,1.234
544.938,1.233
545.209,1.222
545.480,1.214
545.752,1.214
546.023,1.219
546.294,1.215
546.566,1.201
546.837,1.189
547.109,1.185
547.380,1.187
547.652,1.188
547.923,1.189
548.195,1.197
548.466,1.212
548.738,1.224
549.009,1.228
549.281,1.224
549.553,1.218
549.824,1.212
550.096,1.205
550.368,1.205
550.640,1.207
550.911,1.212
551.183,1.221
551.455,1.233
551.727,1.240
551.999,1.234
552.271,1.222
552.543,1.212
552.815,1.208
553.087,1.214
553.359,1.222
553.631,1.226
553.903,1.223
554.175,1.218
554.447,1.218
554.719,1.217
554.991,1.219
555.263,1.221
555.535,1.219
555.808,1.215
556.080,1.209
556.352,1.209
556.624,1.205
556.897,1.204
557.169,1.205
557.441,1.208
557.714,1.208
557.986,1.205
558.258,1.199
558.531,1.197
558.803,1.195
559.076,1.201
559.348,1.204
559.621,1.206
559.893,1.205
560.166,1.203
560.438,1.198
560.711,1.195
560.983,1.195
561.256,1.201
561.528,1.208
561.801,1.211
562.074,1.208
562.346,1.207
562.619,1.209
562.892,1.209
563.164,1.203
563.437,1.196
563.710,1.189
563.983,1.183
564.255,1.179
564.528,1.184
564.801,1.191
565.074,1.198
565.346,1.195
565.619,1.189
565.892,1.187
566.165,1.190
566.438,1.195
566.711,1.197
566.984,1.197
567.257,1.197
567.529,1.195
567.802,1.202
568.075,1.207
568.348,1.212
568.621,1.207
568.894,1.202
569.167,1.195
569.440,1.184
569.713,1.176
569.986,1.174
570.259,1.180
570.532,1.194
570.805,1.202
571.078,1.205
571.351,1.201
571.625,1.199
571.898,1.192
572.171,1.184
572.444,1.178
572.717,1.182
572.990,1.189
573.263,1.186
573.536,1.175
573.809,1.165
574.083,1.165
574.356,1.175
574.629,1.186
574.902,1.192
575.175,1.193
575.448,1.188
575.721,1.186
575.995,1.186
576.268,1.190
576.541,1.193
576.814,1.193
577.087,1.193
577.361,1.195
577.634,1.195
577.907,1.185
578.180,1.178
578.453,1.178
578.727,1.184
579.000,1.187
579.273,1.189
579.546,1.194
579.820,1.196
580.093,1.193
580.366,1.186
580.639,1.178
580.913,1.177
581.186,1.178
581.459,1.180
581.732,1.176
582.005,1.174
582.279,1.170
582.552,1.169
582.825,1.170
583.098,1.171
583.372,1.172
583.645,1.172
583.918,1.177
584.191,1.184
584.464,1.188
584.738,1.192
585.011,1.188
585.284,1.182
585.557,1.174
585.831,1.175
586.104,1.183
586.377,1.194
586.650,1.201
586.923,1.201
587.196,1.197
587.470,1.192
587.743,1.189
588.016,1.184
588.289,1.186
588.562,1.191
588.835,1.198
589.109,1.197
589.382,1.186
589.655,1.175
589.928,1.167
590.201,1.166
590.474,1.173
590.747,1.179
591.020,1.184
591.293,1.184
591.567,1.184
591.840,1.184
592.113,1.182
592.386,1.174
592.659,1.165
592.932,1.165
593.205,1.172
593.478,1.176
593.751,1.171
594.024,1.161
594.297,1.156
594.570,1.154
594.843,1.159
595.116,1.169
595.389,1.182
595.662,1.187
595.934,1.191
596.207,1.193
596.480,1.199
596.753,1.199
597.026,1.195
597.299,1.191
597.572,1.188
597.844,1.182
598.117,1.172
598.390,1.164
598.663,1.163
598.936,1.170
599.208,1.175
599.481,1.177
599.754,1.178
600.026,1.174
600.299,1.169
600.572,1.163
600.844,1.161
601.117,1.155
601.390,1.149
601.662,1.144
601.935,1.144
602.207,1.147
602.480,1.157
602.752,1.163
603.025,1.165
603.297,1.165
603.570,1.173
603.842,1.184
604.115,1.188
604.387,1.188
604.660,1.181
604.932,1.176
605.204,1.175
605.477,1.178
605.749,1.183
606.021,1.188
606.294,1.188
606.566,1.182
606.838,1.176
607.110,1.175
607.383,1.174
607.655,1.174
607.927,1.178
608.199,1.183
608.471,1.184
608.743,1.180
609.015,1.176
609.287,1.176
609.559,1.177
609.831,1.179
610.103,1.180
610.375,1.177
610.647,1.170
610.919,1.163
611.191,1.163
611.463,1.167
611.735,1.169
612.007,1.165
612.278,1.161
612.550,1.161
612.822,1.167
613.094,1.174
613.365,1.178
613.637,1.180
613.909,1.179
614.180,1.178
614.452,1.173
614.723,1.167
614.995,1.162
615.266,1.165
615.538,1.177
615.809,1.186
616.081,1.184
616.352,1.178
616.623,1.171
616.895,1.165
617.166,1.156
617.437,1.148
617.709,1.146
617.980,1.146
618.251,1.154
618.522,1.166
618.793,1.181
619.065,1.190
619.336,1.184
619.607,1.173
619.878,1.166
620.149,1.171
620.420,1.176
620.691,1.177
620.962,1.178
621.232,1.179
621.503,1.172
621.774,1.165
622.045,1.160
622.316,1.167
622.586,1.178
622.857,1.189
623.128,1.190
623.398,1.182
623.669,1.173
623.940,1.165
624.210,1.161
624.481,1.158
624.751,1.157
625.021,1.155
625.292,1.155
625.562,1.159
625.833,1.163
626.103,1.157
626.373,1.148
626.643,1.144
626.914,1.148
627.184,1.157
627.454,1.161
627.724,1.163
627.994,1.162
628.264,1.163
628.534,1.161
628.804,1.160
629.074,1.161
629.344,1.163
629.614,1.163
629.884,1.160
630.154,1.160
630.424,1.159
630.693,1.149
630.963,1.138
631.233,1.131
631.502,1.136
631.772,1.146
632.041,1.153
632.311,1.152
632.581,1.148
632.850,1.146
633.119,1.143
633.389,1.137
633.658,1.136
633.928,1.144
634.197,1.156
634.466,1.167
634.735,1.175
635.004,1.176
635.274,1.173
635.543,1.166
635.812,1.163
636.081,1.161
636.350,1.162
636.619,1.161
636.888,1.158
637.157,1.155
637.426,1.157
637.694,1.159
637.963,1.159
638.232,1.159
638.501,1.159
638.769,1.161
639.038,1.166
639.307,1.172
639.575,1.176
639.844,1.173
640.112,1.167
640.381,1.158
640.649,1.153
640.917,1.150
641.186,1.152
641.454,1.155
641.722,1.159
641.991,1.158
642.259,1.155
642.527,1.153
642.795,1.151
643.063,1.144
643.331,1.143
643.599,1.144
643.867,1.152
644.135,1.161
644.403,1.169
644.671,1.171
644.939,1.166
645.206,1.164
645.474,1.167
645.742,1.168
646.009,1.167
646.277,1.163
646.545,1.161
646.812,1.164
647.080,1.168
647.347,1.171
647.615,1.171
647.882,1.164
648.149,1.157
648.417,1.148
648.684,1.147
648.951,1.149
649.219,1.156
649.486,1.159
649.753,1.157
650.020,1.150
650.287,1.144
650.554,1.140
650.821,1.141
651.088,1.147
651.355,1.157
651.622,1.165
651.889,1.163
652.155,1.156
652.422,1.151
652.689,1.154
652.956,1.158
653.222,1.163
653.489,1.169
653.755,1.172
654.022,1.169
654.288,1.163
654.555,1.163
654.821,1.166
655.088,1.169
655.354,1.172
655.620,1.175
655.887,1.176
656.153,1.173
656.419,1.169
656.685,1.167
656.951,1.167
657.217,1.168
657.483,1.167
657.749,1.167
658.015,1.165
658.281,1.164
658.547,1.160
658.813,1.154
659.079,1.149
659.345,1.148
659.610,1.146
659.876,1.146
660.142,1.145
660.407,1.146
660.673,1.148
660.939,1.151
661.204,1.153
661.470,1.151
661.735,1.148
662.000,1.148
662.266,1.148
662.531,1.147
662.796,1.146
663.062,1.144
663.327,1.141
663.592,1.140
663.857,1.142
664.122,1.146
664.388,1.148
664.653,1.152
664.918,1.155
665.183,1.158
665.448,1.162
665.712,1.167
665.977,1.170
666.242,1.165
666.507,1.151
666.772,1.142
667.037,1.140
667.301,1.148
667.566,1.153
667.831,1.151
668.095,1.147
668.360,1.141
668.624,1.140
668.889,1.142
669.153,1.142
669.418,1.144
669.682,1.145
669.946,1.153
670.211,1.162
670.475,1.169
670.739,1.174
671.004,1.182
671.268,1.196
671.532,1.202
671.796,1.191
672.060,1.175
672.324,1.166
672.588,1.172
672.852,1.184
673.116,1.207
673.380,1.224
673.644,1.211
673.908,1.181
674.172,1.156
674.436,1.156
674.700,1.159
674.963,1.161
675.227,1.161
675.491,1.158
675.754,1.155
676.018,1.153
676.282,1.152
676.545,1.146
676.809,1.141
677.072,1.139
677.336,1.140
677.599,1.142
677.863,1.139
678.126,1.141
678.389,1.150
678.653,1.160
678.916,1.158
679.179,1.146
679.442,1.142
679.706,1.146
679.969,1.150
680.232,1.150
680.495,1.155
680.758,1.160
681.021,1.163
681.284,1.159
681.547,1.154
681.810,1.156
682.073,1.163
682.336,1.168
682.599,1.165
682.862,1.163
683.125,1.165
683.388,1.169
683.651,1.169
683.913,1.168
684.176,1.161
684.439,1.151
684.702,1.144
684.964,1.141
685.227,1.141
685.490,1.146
685.752,1.155
686.015,1.163
686.277,1.159
686.540,1.148
686.802,1.140
687.065,1.138
687.327,1.144
687.590,1.148
687.852,1.145
688.115,1.135
688.377,1.129
688.639,1.129
688.902,1.133
689.164,1.138
689.426,1.146
689.689,1.158
689.951,1.167
690.213,1.167
690.475,1.162
690.737,1.155
691.000,1.150
691.262,1.148
691.524,1.150
691.786,1.159
692.048,1.167
692.310,1.163
692.572,1.149
692.834,1.135
693.096,1.131
693.358,1.139
693.620,1.150
693.882,1.157
694.144,1.156
694.406,1.152
694.668,1.150
694.930,1.148
695.192,1.146
695.453,1.148
695.715,1.149
695.977,1.150
696.239,1.146
696.501,1.145
696.762,1.148
697.024,1.150
697.286,1.148
697.548,1.142
697.809,1.141
698.071,1.139
698.333,1.137
698.594,1.136
698.856,1.138
699.118,1.142
699.379,1.145
699.641,1.150
699.902,1.155
700.164,1.157
700.426,1.155
700.687,1.149
700.949,1.147
701.210,1.144
701.472,1.140
701.733,1.138
701.995,1.143
702.256,1.145
702.518,1.142
702.779,1.133
703.041,1.140
703.302,1.151
703.563,1.154
703.825,1.148
704.086,1.142
704.348,1.141
704.609,1.139
704.871,1.141
705.132,1.146
705.393,1.146
705.655,1.143
705.916,1.139
706.177,1.139
706.439,1.139
706.700,1.138
706.961,1.136
707.223,1.132
707.484,1.121
707.745,1.114
708.007,1.104
708.268,1.102
708.529,1.096
708.790,1.091
709.052,1.087
709.313,1.093
709.574,1.102
709.835,1.106
710.097,1.098
710.358,1.084
710.619,1.073
710.881,1.070
711.142,1.072
711.403,1.072
711.664,1.069
711.926,1.065
712.187,1.066
712.448,1.070
712.709,1.075
712.970,1.081
713.232,1.085
713.493,1.089
713.754,1.092
714.015,1.096
714.277,1.098
714.538,1.102
714.799,1.104
715.060,1.103
715.322,1.098
715.583,1.089
715.844,1.083
716.105,1.079
716.367,1.079
716.628,1.080
716.889,1.078
717.150,1.070
717.411,1.064
717.673,1.064
717.934,1.065
718.195,1.064
718.457,1.058
718.718,1.055
718.979,1.062
719.240,1.069
719.502,1.075
719.763,1.074
720.024,1.073
720.286,1.074
720.547,1.077
720.808,1.077
721.069,1.077
721.331,1.074
721.592,1.074
721.853,1.072
722.115,1.077
722.376,1.083
722.638,1.087
722.899,1.084
723.160,1.077
723.422,1.068
723.683,1.064
723.944,1.068
724.206,1.071
724.467,1.068
724.729,1.064
724.990,1.067
725.252,1.072
725.513,1.070
725.775,1.064
726.036,1.062
726.298,1.064
726.559,1.065
726.821,1.063
727.082,1.064
727.344,1.065
727.605,1.066
727.867,1.070
728.128,1.071
728.390,1.073
728.652,1.074
728.913,1.079
729.175,1.081
729.436,1.081
729.698,1.077
729.960,1.073
730.221,1.068
730.483,1.061
730.745,1.061
731.007,1.065
731.268,1.073
731.530,1.074
731.792,1.074
732.054,1.068
732.315,1.066
732.577,1.064
732.839,1.062
733.101,1.059
733.363,1.055
733.625,1.056
733.887,1.057
734.149,1.060
734.411,1.067
734.673,1.073
734.935,1.071
735.197,1.070
735.459,1.072
735.721,1.077
735.983,1.072
736.245,1.063
736.507,1.060
736.769,1.068
737.031,1.077
737.293,1.074
737.555,1.065
737.818,1.057
738.080,1.055
738.342,1.055
738.604,1.056
738.867,1.055
739.129,1.051
739.391,1.041
739.654,1.038
739.916,1.039
740.178,1.046
740.441,1.055
740.703,1.062
740.966,1.061
741.228,1.057
741.491,1.058
741.753,1.063
742.016,1.067
742.278,1.067
742.541,1.064
742.804,1.060
743.066,1.056
743.329,1.051
743.592,1.049
743.854,1.055
744.117,1.064
744.380,1.073
744.643,1.072
744.905,1.070
745.168,1.071
745.431,1.070
745.694,1.066
745.957,1.059
746.220,1.056
746.483,1.058
746.746,1.061
747.009,1.067
747.272,1.075
747.535,1.085
747.798,1.084
748.061,1.076
748.324,1.066
748.588,1.060
748.851,1.056
749.114,1.055
749.377,1.055
749.641,1.055
749.904,1.057
750.167,1.058
750.431,1.060
750.694,1.065
750.958,1.070
751.221,1.068
751.485,1.066
751.748,1.062
752.012,1.068
752.275,1.077
752.539,1.080
752.803,1.076
753.066,1.065
753.330,1.060
753.594,1.057
753.857,1.060
754.121,1.063
754.385,1.066
754.649,1.064
754.913,1.066
755.177,1.066
755.441,1.064
755.705,1.058
755.969,1.053
756.233,1.056
756.497,1.060
756.761,1.062
757.025,1.061
757.289,1.060
757.553,1.062
757.818,1.067
758.082,1.072
758.346,1.077
758.610,1.079
758.875,1.079
759.139,1.078
759.404,1.075
759.668,1.068
759.932,1.066
760.197,1.069
760.462,1.076
760.726,1.078
760.991,1.076
761.255,1.076
761.520,1.075
761.785,1.069
762.049,1.058
762.314,1.048
762.579,1.047
762.844,1.056
763.109,1.066
763.374,1.071
763.639,1.070
763.903,1.066
764.168,1.064
764.433,1.067
764.699,1.074
764.964,1.077
765.229,1.073
765.494,1.066
765.759,1.064
766.024,1.064
766.290,1.071
766.555,1.079
766.820,1.082
767.086,1.080
767.351,1.075
767.616,1.072
767.882,1.070
768.147,1.068
768.413,1.065
768.678,1.061
768.944,1.062
769.209,1.066
769.475,1.072
769.741,1.074
770.006,1.079
770.272,1.080
770.538,1.081
770.804,1.081
771.070,1.080
771.335,1.079
771.601,1.083
771.867,1.089
772.133,1.092
772.399,1.091
772.665,1.082
772.931,1.078
773.197,1.075
773.464,1.079
773.730,1.083
773.996,1.087
774.262,1.091
774.528,1.096
774.795,1.096
775.061,1.097
775.327,1.092
775.594,1.085
775.860,1.071
776.126,1.060
776.393,1.053
776.659,1.053
776.926,1.056
777.193,1.062
777.459,1.064
777.726,1.063
777.992,1.058
778.259,1.058
778.526,1.064
778.793,1.070
779.059,1.076
779.326,1.079
779.593,1.085
779.860,1.087
780.127,1.085
780.394,1.079
780.661,1.073
780.928,1.071
781.195,1.067
781.462,1.058
781.729,1.051
781.996,1.051
782.263,1.060
782.530,1.072
782.797,1.074
783.064,1.068
783.332,1.060
783.599,1.056
783.866,1.060
784.134,1.064
784.401,1.067
784.668,1.068
784.936,1.070
785.203,1.070
785.470,1.066
785.738,1.061
786.005,1.060
786.273,1.064
786.541,1.066
786.808,1.065
787.076,1.061
787.343,1.058
787.611,1.059
787.879,1.065
788.146,1.071
788.414,1.081
788.682,1.087
788.950,1.092
789.217,1.094
789.485,1.098
789.753,1.098
790.021,1.089
790.289,1.074
790.557,1.062
790.825,1.060
791.093,1.065
791.361,1.076
791.629,1.085
791.897,1.089
792.165,1.087
792.433,1.080
792.701,1.070
792.969,1.058
793.237,1.053
793.505,1.055
793.773,1.062
794.042,1.063
794.310,1.064
794.578,1.063
794.846,1.062
795.115,1.057
795.383,1.052
795.651,1.055
795.920,1.060
796.188,1.067
796.456,1.071
796.725,1.077
796.993,1.087
797.261,1.098
797.530,1.102
797.798,1.100
798.067,1.096
798.335,1.097
798.604,1.089
798.872,1.077
799.141,1.062
799.409,1.056
799.678,1.057
799.946,1.062
800.215,1.064
800.483,1.063
800.752,1.061
801.020,1.060
801.289,1.060
801.558,1.059
801.826,1.061
802.095,1.062
802.363,1.066
802.632,1.069
802.901,1.071
803.169,1.070
803.438,1.069
803.707,1.064
803.976,1.060
804.244,1.055
804.513,1.051
804.782,1.044
805.050,1.039
805.319,1.039
805.588,1.047
805.857,1.057
806.125,1.064
806.394,1.066
806.663,1.061
806.931,1.060
807.200,1.060
807.469,1.064
807.738,1.066
808.006,1.071
808.275,1.078
808.544,1.085
808.813,1.085
809.082,1.079
809.350,1.072
809.619,1.068
809.888,1.062
810.157,1.055
810.425,1.050
810.694,1.052
810.963,1.056
811.232,1.057
811.500,1.053
811.769,1.047
812.038,1.047
812.306,1.051
812.575,1.062
812.844,1.069
813.113,1.071
813.381,1.067
813.650,1.064
813.919,1.063
814.187,1.066
814.456,1.069
814.725,1.075
814.993,1.079
815.262,1.081
815.531,1.075
815.799,1.070
816.068,1.062
816.336,1.053
816.605,1.049
816.873,1.053
817.142,1.066
817.411,1.073
817.679,1.075
817.948,1.075
818.216,1.082
818.485,1.101
818.753,1.116
819.021,1.107
819.290,1.084
819.558,1.069
819.827,1.071
820.095,1.078
820.363,1.078
820.632,1.077
820.900,1.072
821.168,1.074
821.437,1.080
821.705,1.082
821.973,1.079
822.241,1.073
822.509,1.071
822.777,1.067
823.046,1.061
823.314,1.060
823.582,1.064
823.850,1.070
824.118,1.077
824.386,1.079
824.654,1.066
824.922,1.049
825.190,1.037
825.457,1.041
825.725,1.047
825.993,1.048
826.261,1.051
826.529,1.055
826.796,1.058
827.064,1.059
827.332,1.060
827.599,1.064
827.867,1.072
828.134,1.074
828.402,1.072
828.669,1.065
828.937,1.065
829.204,1.077
829.471,1.093
829.739,1.102
830.006,1.094
830.273,1.079
830.540,1.066
830.807,1.059
831.075,1.058
831.342,1.060
831.609,1.060
831.876,1.058
832.142,1.059
832.409,1.062
832.676,1.064
832.943,1.058
833.210,1.056
833.476,1.058
833.743,1.066
834.010,1.072
834.276,1.069
834.543,1.062
834.809,1.059
835.076,1.059
835.342,1.057
835.608,1.058
835.874,1.061
836.141,1.066
836.407,1.066
836.673,1.065
836.939,1.066
837.205,1.063
837.471,1.060
837.737,1.059
838.002,1.060
838.268,1.063
838.534,1.065
838.799,1.068
839.065,1.071
839.330,1.075
839.596,1.079
839.861,1.080
840.127,1.080
840.392,1.079
840.657,1.076
840.922,1.076
841.187,1.074
841.452,1.077
841.717,1.077
841.982,1.076
842.247,1.071
842.511,1.069
842.776,1.069
843.041,1.068
843.305,1.063
843.570,1.060
843.834,1.058
844.098,1.058
844.362,1.056
844.627,1.052
844.891,1.051
845.155,1.051
845.419,1.058
845.682,1.062
845.946,1.071
846.210,1.074
846.474,1.071
846.737,1.068
847.001,1.063
847.264,1.063
847.527,1.062
847.790,1.066
848.054,1.068
848.317,1.062
848.580,1.052
848.843,1.049
849.105,1.056
849.368,1.068
849.631,1.073
849.893,1.078
850.156,1.083
850.418,1.084
850.680,1.073
850.943,1.064
851.205,1.061
851.467,1.064
851.729,1.068
851.991,1.072
852.252,1.080
852.514,1.086
852.776,1.091
853.037,1.093
853.298,1.089
853.560,1.081
853.821,1.070
854.082,1.060
854.343,1.057
854.604,1.066
854.865,1.081
855.126,1.093
855.386,1.099
855.647,1.095
855.907,1.087
856.168,1.077
856.428,1.070
856.688,1.068
856.948,1.063
857.208,1.059
857.468,1.057
857.727,1.060
857.987,1.062
858.247,1.066
858.506,1.074
858.765,1.079
859.024,1.076
859.284,1.068
859.543,1.062
859.801,1.061
860.060,1.065
860.319,1.072
860.577,1.080
860.836,1.082
861.094,1.081
861.352,1.073
861.611,1.066
861.869,1.061
862.127,1.068
862.384,1.078
862.642,1.082
862.900,1.080
863.157,1.075
863.414,1.073
863.672,1.068
863.929,1.060
864.186,1.056
864.443,1.061
864.699,1.071
864.956,1.073
865.212,1.066
865.469,1.061
865.725,1.064
865.981,1.070
866.237,1.072
866.493,1.070
866.749,1.066
867.005,1.066
867.260,1.064
867.516,1.061
867.771,1.053
868.026,1.053
868.282,1.058
868.536,1.062
868.791,1.058
869.046,1.050
869.301,1.045
869.555,1.048
869.809,1.058
870.064,1.066
870.318,1.077
870.572,1.081
870.826,1.079
871.079,1.069
871.333,1.062
871.586,1.059
871.840,1.058
872.093,1.060
872.346,1.069
872.599,1.085
872.852,1.098
873.105,1.105
873.357,1.099
873.610,1.089
873.862,1.084
874.114,1.083
874.366,1.079
874.618,1.070
874.870,1.059
875.121,1.052
875.373,1.050
875.624,1.054
875.876,1.058
876.127,1.062
876.378,1.066
876.629,1.064
876.879,1.066
877.130,1.064
877.381,1.061
877.631,1.053
877.881,1.051
878.131,1.060
878.381,1.078
878.631,1.092
878.881,1.094
879.130,1.085
879.380,1.075
879.629,1.070
879.878,1.064
880.127,1.058
880.376,1.058
880.625,1.065
880.873,1.069
881.122,1.068
881.370,1.066
881.618,1.065
881.866,1.064
882.114,1.062
882.362,1.059
882.610,1.058
882.857,1.060
883.105,1.065
883.352,1.068
883.599,1.068
883.846,1.064
884.093,1.062
884.340,1.068
884.586,1.077
884.833,1.080
885.079,1.072
885.325,1.061
885.571,1.055
885.817,1.055
886.063,1.061
886.309,1.065
886.554,1.071
886.800,1.077
887.045,1.081
887.290,1.074
887.535,1.063
887.780,1.058
888.025,1.064
888.270,1.078
888.514,1.087
888.758,1.088
889.003,1.079
889.247,1.066
889.491,1.060
889.735,1.060
889.978,1.067
890.222,1.072
890.465,1.072
890.709,1.073
890.952,1.070
891.195,1.069
891.438,1.067
891.681,1.070
891.923,1.073
892.166,1.079
892.408,1.084
892.651,1.081
892.893,1.072
893.135,1.060
893.377,1.058
893.619,1.062
893.861,1.070
894.102,1.078
894.344,1.085
894.585,1.092
894.826,1.094
895.067,1.089
895.308,1.081
895.549,1.071
895.790,1.062
896.031,1.054
896.271,1.058
896.512,1.068
896.752,1.077
896.992,1.079
897.232,1.077
897.472,1.079
897.712,1.086
897.952,1.096
898.191,1.096
898.431,1.091
898.670,1.092
898.910,1.100
899.149,1.108
899.388,1.106
899.627,1.098
899.866,1.085
900.105,1.077
900.343,1.074
900.582,1.078
900.820,1.082
901.059,1.088
901.297,1.090
901.535,1.079
901.773,1.062
902.011,1.049
902.249,1.047
902.487,1.052
902.725,1.061
902.963,1.070
903.200,1.073
903.438,1.073
903.675,1.072
903.912,1.073
904.150,1.076
904.387,1.075
904.624,1.066
904.861,1.052
905.098,1.044
905.334,1.046
905.571,1.049
905.808,1.056
906.045,1.066
906.281,1.074
906.518,1.076
906.754,1.072
906.990,1.075
907.227,1.079
907.463,1.078
907.699,1.071
907.935,1.070
908.171,1.077
908.407,1.082
908.643,1.081
908.879,1.078
909.115,1.081
909.350,1.084
909.586,1.084
909.822,1.085
910.057,1.093
910.293,1.108
910.528,1.115
910.764,1.110
910.999,1.100
911.235,1.090
911.470,1.087
911.706,1.079
911.941,1.074
912.176,1.065
912.412,1.062
912.647,1.065
912.882,1.073
913.117,1.077
913.352,1.071
913.588,1.066
913.823,1.066
914.058,1.068
914.293,1.068
914.528,1.064
914.763,1.061
914.999,1.057
915.234,1.058
915.469,1.060
915.704,1.062
915.939,1.061
916.174,1.055
916.409,1.053
916.645,1.058
916.880,1.070
917.115,1.077
917.350,1.078
917.586,1.077
917.821,1.079
918.056,1.081
918.292,1.083
918.527,1.080
918.763,1.074
918.998,1.070
919.234,1.076
919.469,1.085
919.705,1.087
919.940,1.081
920.176,1.077
920.412,1.074
920.648,1.070
920.884,1.066
921.120,1.064
921.356,1.066
921.592,1.067
921.828,1.070
922.065,1.081
922.301,1.093
922.537,1.102
922.774,1.100
923.011,1.087
923.247,1.076
923.484,1.069
923.721,1.069
923.958,1.071
924.195,1.073
924.433,1.073
924.670,1.069
924.908,1.066
925.145,1.067
925.383,1.072
925.621,1.075
925.859,1.077
926.097,1.080
926.335,1.083
926.574,1.084
926.813,1.085
927.051,1.091
927.290,1.095
927.529,1.098
927.769,1.098
928.008,1.096
928.248,1.084
928.487,1.075
928.727,1.073
928.967,1.081
929.208,1.083
929.448,1.080
929.689,1.072
929.930,1.067
930.171,1.066
930.413,1.070
930.654,1.072
930.896,1.071
931.138,1.065
931.380,1.060
931.623,1.055
931.865,1.058
932.108,1.065
932.352,1.074
932.595,1.084
932.839,1.086
933.083,1.084
933.327,1.074
933.571,1.066
933.816,1.068
934.061,1.074
934.307,1.076
934.552,1.070
934.798,1.066
935.045,1.067
935.291,1.068
935.538,1.070
935.785,1.072
936.033,1.080
936.281,1.085
936.529,1.091
936.777,1.089
937.026,1.084
937.275,1.079
937.525,1.074
937.775,1.070
938.025,1.068
938.276,1.066
938.527,1.064
938.778,1.060
939.030,1.058
939.282,1.056
939.535,1.054
939.788,1.059
940.041,1.062
940.295,1.066
940.550,1.068
940.804,1.073
941.059,1.076
941.315,1.072
941.571,1.068
941.828,1.068
942.085,1.071
942.342,1.071
942.600,1.069
942.858,1.068
943.117,1.066
943.377,1.064
943.636,1.061
943.897,1.060
944.158,1.064
944.419,1.066
944.681,1.070
944.944,1.071
945.207,1.076
945.470,1.081
945.734,1.082
945.999,1.087
946.264,1.088
946.530,1.088
946.797,1.082
947.064,1.079
947.331,1.072
947.600,1.065
947.869,1.058
948.138,1.054
948.408,1.051
948.679,1.055
948.950,1.062
949.222,1.067
949.495,1.067
949.768,1.067
950.043,1.070
