Wavelength (nm),Intensity B10,,C:/Users/Brend/Desktop/LED Spectras v2/Spectrometer Data (Blue Condensed).sp,,,B10,
379.792,1.793,,2018-06-26 15:20:04,,Integration Time,157 ms,
380.000,1.789,,Analyze Light,,Number of Scans to Average,25,
380.209,1.785,,,,Smoothing,1,
380.418,1.793
380.627,1.805
380.837,1.820
381.048,1.831
381.259,1.835
381.471,1.834
381.683,1.839
381.896,1.851
382.110,1.860
382.324,1.870
382.538,1.883
382.753,1.895
382.969,1.891
383.185,1.881
383.402,1.871
383.619,1.873
383.837,1.882
384.055,1.902
384.274,1.923
384.493,1.937
384.712,1.939
384.932,1.941
385.153,1.944
385.374,1.956
385.596,1.965
385.818,1.981
386.040,1.994
386.263,2.010
386.487,2.016
386.710,2.019
386.935,2.011
387.159,2.007
387.385,2.003
387.610,2.001
387.836,2.000
388.063,2.001
388.289,2.009
388.517,2.019
388.744,2.024
388.972,2.037
389.201,2.042
389.430,2.054
389.659,2.056
389.889,2.067
390.119,2.073
390.349,2.082
390.580,2.091
390.811,2.099
391.042,2.102
391.274,2.106
391.507,2.110
391.739,2.112
391.972,2.107
392.205,2.109
392.439,2.120
392.673,2.138
392.907,2.152
393.142,2.165
393.377,2.172
393.612,2.183
393.848,2.185
394.084,2.190
394.320,2.189
394.557,2.201
394.794,2.209
395.031,2.223
395.269,2.230
395.507,2.237
395.745,2.237
395.983,2.240
396.222,2.251
396.461,2.275
396.700,2.299
396.940,2.309
397.180,2.305
397.420,2.293
397.660,2.291
397.901,2.294
398.142,2.301
398.383,2.302
398.625,2.299
398.866,2.303
399.108,2.323
399.351,2.354
399.593,2.364
399.836,2.360
400.079,2.346
400.322,2.341
400.566,2.334
400.809,2.331
401.053,2.330
401.298,2.336
401.542,2.351
401.787,2.370
402.031,2.386
402.277,2.397
402.522,2.401
402.767,2.407
403.013,2.401
403.259,2.402
403.505,2.399
403.752,2.402
403.998,2.402
404.245,2.419
404.492,2.441
404.739,2.459
404.986,2.465
405.234,2.471
405.482,2.474
405.730,2.471
405.978,2.467
406.226,2.463
406.475,2.461
406.723,2.461
406.972,2.470
407.221,2.485
407.470,2.495
407.720,2.503
407.969,2.497
408.219,2.507
408.469,2.520
408.719,2.538
408.969,2.540
409.219,2.545
409.470,2.553
409.720,2.572
409.971,2.584
410.222,2.601
410.473,2.604
410.724,2.607
410.976,2.609
411.227,2.624
411.479,2.631
411.731,2.636
411.983,2.629
412.235,2.631
412.487,2.631
412.740,2.639
412.992,2.643
413.245,2.648
413.497,2.647
413.750,2.650
414.003,2.644
414.257,2.639
414.510,2.635
414.763,2.647
415.017,2.662
415.270,2.671
415.524,2.665
415.778,2.663
416.032,2.665
416.286,2.677
416.540,2.680
416.794,2.688
417.049,2.691
417.303,2.700
417.558,2.705
417.812,2.708
418.067,2.711
418.322,2.715
418.577,2.714
418.832,2.706
419.088,2.689
419.343,2.688
419.598,2.681
419.854,2.688
420.109,2.693
420.365,2.720
420.621,2.732
420.876,2.743
421.132,2.738
421.388,2.734
421.645,2.730
421.901,2.734
422.157,2.742
422.413,2.752
422.670,2.757
422.926,2.763
423.183,2.761
423.439,2.772
423.696,2.790
423.953,2.827
424.210,2.857
424.467,2.871
424.724,2.871
424.981,2.872
425.238,2.889
425.495,2.923
425.753,2.959
426.010,2.991
426.267,3.016
426.525,3.060
426.782,3.105
427.040,3.157
427.298,3.204
427.555,3.267
427.813,3.323
428.071,3.377
428.329,3.424
428.587,3.479
428.845,3.536
429.103,3.609
429.361,3.688
429.619,3.778
429.878,3.864
430.136,3.961
430.394,4.053
430.653,4.172
430.911,4.291
431.170,4.424
431.428,4.543
431.687,4.676
431.946,4.811
432.204,4.959
432.463,5.110
432.722,5.270
432.981,5.434
433.240,5.621
433.499,5.821
433.758,6.041
434.017,6.249
434.276,6.468
434.535,6.681
434.794,6.917
435.053,7.159
435.312,7.423
435.572,7.693
435.831,7.982
436.090,8.284
436.350,8.605
436.609,8.931
436.869,9.275
437.128,9.620
437.388,9.979
437.647,10.342
437.907,10.742
438.166,11.151
438.426,11.570
438.686,11.986
438.946,12.440
439.205,12.916
439.465,13.431
439.725,13.970
439.985,14.533
440.245,15.099
440.505,15.672
440.765,16.257
441.025,16.867
441.285,17.495
441.545,18.151
441.805,18.825
442.065,19.538
442.325,20.285
442.585,21.087
442.846,21.917
443.106,22.808
443.366,23.719
443.626,24.677
443.887,25.667
444.147,26.706
444.407,27.787
444.668,28.919
444.928,30.113
445.189,31.366
445.449,32.668
445.710,34.021
445.970,35.439
446.231,36.929
446.491,38.494
446.752,40.130
447.012,41.825
447.273,43.594
447.534,45.413
447.794,47.287
448.055,49.202
448.316,51.211
448.577,53.318
448.837,55.511
449.098,57.748
449.359,59.998
449.620,62.253
449.881,64.494
450.142,66.762
450.403,69.068
450.664,71.435
450.924,73.814
451.185,76.170
451.446,78.441
451.707,80.614
451.969,82.631
452.230,84.415
452.491,85.904
452.752,87.111
453.013,88.123
453.274,89.002
453.535,89.762
453.796,90.410
454.058,90.949
454.319,91.399
454.580,91.753
454.841,92.033
455.103,92.229
455.364,92.359
455.625,92.419
455.887,92.426
456.148,92.383
456.409,92.287
456.671,92.133
456.932,91.925
457.194,91.657
457.455,91.330
457.716,90.918
457.978,90.433
458.239,89.858
458.501,89.200
458.763,88.444
459.024,87.580
459.286,86.561
459.547,85.322
459.809,83.791
460.071,81.995
460.332,80.021
460.594,78.001
460.856,75.994
461.117,73.999
461.379,72.016
461.641,70.048
461.903,68.119
462.164,66.237
462.426,64.423
462.688,62.682
462.950,61.012
463.212,59.403
463.474,57.836
463.736,56.333
463.998,54.919
464.260,53.622
464.522,52.427
464.784,51.305
465.046,50.238
465.308,49.232
465.570,48.300
465.832,47.428
466.094,46.619
466.356,45.832
466.618,45.085
466.880,44.332
467.142,43.612
467.405,42.912
467.667,42.247
467.929,41.596
468.191,40.951
468.454,40.307
468.716,39.645
468.978,38.950
469.241,38.230
469.503,37.517
469.765,36.828
470.028,36.147
470.290,35.460
470.552,34.752
470.815,34.046
471.077,33.319
471.340,32.611
471.602,31.895
471.865,31.193
472.128,30.473
472.390,29.752
472.653,29.035
472.915,28.317
473.178,27.600
473.441,26.868
473.703,26.137
473.966,25.408
474.229,24.698
474.492,23.989
474.755,23.279
475.017,22.597
475.280,21.938
475.543,21.322
475.806,20.692
476.069,20.068
476.332,19.444
476.595,18.851
476.858,18.279
477.121,17.723
477.384,17.184
477.647,16.681
477.910,16.199
478.173,15.741
478.436,15.288
478.699,14.866
478.962,14.463
479.226,14.092
479.489,13.730
479.752,13.384
480.015,13.043
480.279,12.715
480.542,12.394
480.805,12.083
481.069,11.776
481.332,11.483
481.595,11.200
481.859,10.952
482.122,10.703
482.386,10.463
482.649,10.212
482.913,9.973
483.177,9.733
483.440,9.493
483.704,9.262
483.967,9.060
484.231,8.868
484.495,8.686
484.759,8.497
485.022,8.301
485.286,8.095
485.550,7.890
485.814,7.683
486.078,7.492
486.342,7.304
486.606,7.139
486.869,6.970
487.133,6.807
487.397,6.643
487.662,6.487
487.926,6.315
488.190,6.145
488.454,5.963
488.718,5.803
488.982,5.636
489.246,5.487
489.511,5.331
489.775,5.187
490.039,5.038
490.304,4.899
490.568,4.744
490.832,4.603
491.097,4.467
491.361,4.354
491.626,4.235
491.890,4.124
492.155,4.018
492.419,3.924
492.684,3.819
492.949,3.710
493.213,3.607
493.478,3.527
493.743,3.443
494.008,3.342
494.272,3.235
494.537,3.148
494.802,3.076
495.067,3.023
495.332,2.971
495.597,2.923
495.862,2.860
496.127,2.803
496.392,2.743
496.657,2.685
496.922,2.624
497.187,2.579
497.452,2.544
497.718,2.523
497.983,2.485
498.248,2.448
498.513,2.399
498.779,2.376
499.044,2.360
499.310,2.335
499.575,2.295
499.841,2.258
500.106,2.229
500.372,2.196
500.637,2.168
500.903,2.154
501.168,2.147
501.434,2.129
501.700,2.094
501.966,2.067
502.231,2.038
502.497,2.017
502.763,1.989
503.029,1.964
503.295,1.942
503.561,1.924
503.827,1.913
504.093,1.901
504.359,1.889
504.625,1.878
504.891,1.860
505.157,1.846
505.423,1.822
505.690,1.799
505.956,1.779
506.222,1.775
506.489,1.783
506.755,1.792
507.021,1.796
507.288,1.793
507.554,1.781
507.821,1.768
508.087,1.755
508.354,1.753
508.621,1.746
508.887,1.728
509.154,1.708
509.421,1.694
509.687,1.685
509.954,1.670
510.221,1.657
510.488,1.655
510.755,1.658
511.022,1.664
511.289,1.656
511.556,1.645
511.823,1.634
512.090,1.639
512.357,1.638
512.624,1.634
512.891,1.619
513.159,1.606
513.426,1.594
513.693,1.590
513.960,1.592
514.228,1.597
514.495,1.598
514.763,1.594
515.030,1.583
515.298,1.563
515.565,1.553
515.833,1.547
516.100,1.549
516.368,1.549
516.636,1.544
516.904,1.543
517.171,1.531
517.439,1.522
517.707,1.510
517.975,1.507
518.243,1.510
518.511,1.508
518.779,1.496
519.047,1.488
519.315,1.488
519.583,1.489
519.851,1.481
520.119,1.474
520.387,1.470
520.656,1.467
520.924,1.464
521.192,1.467
521.461,1.473
521.729,1.482
521.997,1.489
522.266,1.490
522.534,1.488
522.803,1.489
523.071,1.485
523.340,1.470
523.609,1.451
523.877,1.439
524.146,1.436
524.415,1.439
524.684,1.444
524.952,1.441
525.221,1.441
525.490,1.448
525.759,1.461
526.028,1.466
526.297,1.454
526.566,1.440
526.835,1.431
527.104,1.431
527.373,1.437
527.642,1.439
527.912,1.435
528.181,1.427
528.450,1.424
528.719,1.430
528.989,1.448
529.258,1.462
529.528,1.463
529.797,1.448
530.067,1.438
530.336,1.430
530.606,1.424
530.875,1.412
531.145,1.409
531.414,1.414
531.684,1.426
531.954,1.434
532.224,1.429
532.493,1.414
532.763,1.404
533.033,1.404
533.303,1.410
533.573,1.413
533.843,1.405
534.113,1.398
534.383,1.388
534.653,1.390
534.923,1.397
535.193,1.409
535.463,1.420
535.733,1.428
536.004,1.436
536.274,1.437
536.544,1.429
536.814,1.414
537.085,1.401
537.355,1.402
537.626,1.414
537.896,1.426
538.166,1.430
538.437,1.425
538.707,1.419
538.978,1.418
539.249,1.423
539.519,1.425
539.790,1.418
540.061,1.412
540.331,1.416
540.602,1.430
540.873,1.439
541.144,1.440
541.414,1.435
541.685,1.431
541.956,1.429
542.227,1.428
542.498,1.420
542.769,1.415
543.040,1.418
543.311,1.434
543.582,1.448
543.853,1.452
544.124,1.453
544.396,1.455
544.667,1.458
544.938,1.455
545.209,1.433
545.480,1.416
545.752,1.407
546.023,1.419
546.294,1.420
546.566,1.411
546.837,1.397
547.109,1.390
547.380,1.384
547.652,1.380
547.923,1.378
548.195,1.387
548.466,1.404
548.738,1.424
549.009,1.427
549.281,1.418
549.553,1.400
549.824,1.380
550.096,1.367
550.368,1.364
550.640,1.368
550.911,1.376
551.183,1.391
551.455,1.414
551.727,1.427
551.999,1.421
552.271,1.404
552.543,1.392
552.815,1.389
553.087,1.398
553.359,1.410
553.631,1.416
553.903,1.414
554.175,1.412
554.447,1.413
554.719,1.412
554.991,1.409
555.263,1.409
555.535,1.404
555.808,1.396
556.080,1.387
556.352,1.386
556.624,1.386
556.897,1.384
557.169,1.381
557.441,1.377
557.714,1.375
557.986,1.375
558.258,1.374
558.531,1.382
558.803,1.386
559.076,1.392
559.348,1.388
559.621,1.383
559.893,1.382
560.166,1.381
560.438,1.380
560.711,1.373
560.983,1.367
561.256,1.367
561.528,1.374
561.801,1.387
562.074,1.396
562.346,1.400
562.619,1.404
562.892,1.401
563.164,1.396
563.437,1.392
563.710,1.392
563.983,1.387
564.255,1.380
564.528,1.385
564.801,1.398
565.074,1.405
565.346,1.393
565.619,1.382
565.892,1.382
566.165,1.386
566.438,1.380
566.711,1.369
566.984,1.364
567.257,1.366
567.529,1.372
567.802,1.382
568.075,1.396
568.348,1.399
568.621,1.398
568.894,1.390
569.167,1.383
569.440,1.373
569.713,1.360
569.986,1.353
570.259,1.348
570.532,1.357
570.805,1.369
571.078,1.378
571.351,1.384
571.625,1.389
571.898,1.387
572.171,1.377
572.444,1.366
572.717,1.368
572.990,1.377
573.263,1.376
573.536,1.368
573.809,1.352
574.083,1.344
574.356,1.348
574.629,1.364
574.902,1.376
575.175,1.378
575.448,1.368
575.721,1.360
575.995,1.357
576.268,1.360
576.541,1.369
576.814,1.378
577.087,1.383
577.361,1.384
577.634,1.382
577.907,1.373
578.180,1.355
578.453,1.342
578.727,1.342
579.000,1.351
579.273,1.364
579.546,1.378
579.820,1.393
580.093,1.395
580.366,1.386
580.639,1.371
580.913,1.361
581.186,1.353
581.459,1.350
581.732,1.342
582.005,1.339
582.279,1.335
582.552,1.339
582.825,1.343
583.098,1.350
583.372,1.359
583.645,1.364
583.918,1.369
584.191,1.369
584.464,1.366
584.738,1.360
585.011,1.354
585.284,1.351
585.557,1.350
585.831,1.355
586.104,1.372
586.377,1.395
586.650,1.409
586.923,1.407
587.196,1.396
587.470,1.382
587.743,1.374
588.016,1.369
588.289,1.372
588.562,1.379
588.835,1.380
589.109,1.372
589.382,1.359
589.655,1.351
589.928,1.349
590.201,1.349
590.474,1.357
590.747,1.368
591.020,1.378
591.293,1.384
591.567,1.387
591.840,1.383
592.113,1.375
592.386,1.362
592.659,1.352
592.932,1.345
593.205,1.349
593.478,1.354
593.751,1.354
594.024,1.350
594.297,1.343
594.570,1.339
594.843,1.343
595.116,1.355
595.389,1.363
595.662,1.357
595.934,1.355
596.207,1.363
596.480,1.377
596.753,1.382
597.026,1.379
597.299,1.376
597.572,1.375
597.844,1.373
598.117,1.364
598.390,1.357
598.663,1.352
598.936,1.353
599.208,1.356
599.481,1.363
599.754,1.365
600.026,1.354
600.299,1.341
600.572,1.333
600.844,1.331
601.117,1.326
601.390,1.322
601.662,1.320
601.935,1.322
602.207,1.326
602.480,1.333
602.752,1.335
603.025,1.330
603.297,1.327
603.570,1.336
603.842,1.353
604.115,1.365
604.387,1.372
604.660,1.368
604.932,1.366
605.204,1.369
605.477,1.377
605.749,1.387
606.021,1.396
606.294,1.399
606.566,1.391
606.838,1.384
607.110,1.379
607.383,1.382
607.655,1.384
607.927,1.392
608.199,1.397
608.471,1.400
608.743,1.394
609.015,1.386
609.287,1.378
609.559,1.378
609.831,1.383
610.103,1.389
610.375,1.392
610.647,1.387
610.919,1.373
611.191,1.363
611.463,1.360
611.735,1.360
612.007,1.354
612.278,1.345
612.550,1.343
612.822,1.350
613.094,1.359
613.365,1.363
613.637,1.364
613.909,1.365
614.180,1.367
614.452,1.364
614.723,1.360
614.995,1.355
615.266,1.356
615.538,1.365
615.809,1.372
616.081,1.367
616.352,1.353
616.623,1.344
616.895,1.341
617.166,1.340
617.437,1.339
617.709,1.343
617.980,1.351
618.251,1.360
618.522,1.365
618.793,1.374
619.065,1.384
619.336,1.382
619.607,1.372
619.878,1.368
620.149,1.380
620.420,1.385
620.691,1.380
620.962,1.377
621.232,1.383
621.503,1.379
621.774,1.368
622.045,1.357
622.316,1.364
622.586,1.378
622.857,1.392
623.128,1.395
623.398,1.388
623.669,1.381
623.940,1.372
624.210,1.364
624.481,1.364
624.751,1.366
625.021,1.367
625.292,1.359
625.562,1.356
625.833,1.353
626.103,1.348
626.373,1.341
626.643,1.341
626.914,1.347
627.184,1.357
627.454,1.363
627.724,1.361
627.994,1.359
628.264,1.357
628.534,1.348
628.804,1.342
629.074,1.343
629.344,1.355
629.614,1.360
629.884,1.354
630.154,1.342
630.424,1.328
630.693,1.316
630.963,1.304
631.233,1.298
631.502,1.300
631.772,1.314
632.041,1.329
632.311,1.336
632.581,1.336
632.850,1.332
633.119,1.323
633.389,1.312
633.658,1.309
633.928,1.316
634.197,1.332
634.466,1.349
634.735,1.358
635.004,1.350
635.274,1.338
635.543,1.327
635.812,1.325
636.081,1.326
636.350,1.328
636.619,1.333
636.888,1.335
637.157,1.338
637.426,1.345
637.694,1.353
637.963,1.356
638.232,1.351
638.501,1.338
638.769,1.332
639.038,1.333
639.307,1.349
639.575,1.361
639.844,1.361
640.112,1.354
640.381,1.339
640.649,1.335
640.917,1.336
641.186,1.338
641.454,1.338
641.722,1.338
641.991,1.341
642.259,1.335
642.527,1.329
642.795,1.325
643.063,1.319
643.331,1.315
643.599,1.314
643.867,1.325
644.135,1.333
644.403,1.341
644.671,1.341
644.939,1.346
645.206,1.349
645.474,1.357
645.742,1.353
646.009,1.342
646.277,1.332
646.545,1.332
646.812,1.346
647.080,1.361
647.347,1.369
647.615,1.367
647.882,1.352
648.149,1.334
648.417,1.323
648.684,1.321
648.951,1.329
649.219,1.339
649.486,1.345
649.753,1.341
650.020,1.333
650.287,1.327
650.554,1.326
650.821,1.326
651.088,1.326
651.355,1.333
651.622,1.339
651.889,1.342
652.155,1.332
652.422,1.327
652.689,1.330
652.956,1.336
653.222,1.346
653.489,1.362
653.755,1.374
654.022,1.370
654.288,1.355
654.555,1.348
654.821,1.353
655.088,1.358
655.354,1.361
655.620,1.363
655.887,1.366
656.153,1.368
656.419,1.367
656.685,1.365
656.951,1.362
657.217,1.355
657.483,1.347
657.749,1.340
658.015,1.335
658.281,1.332
658.547,1.326
658.813,1.318
659.079,1.314
659.345,1.313
659.610,1.316
659.876,1.319
660.142,1.322
660.407,1.324
660.673,1.328
660.939,1.333
661.204,1.331
661.470,1.327
661.735,1.322
662.000,1.323
662.266,1.323
662.531,1.323
662.796,1.321
663.062,1.317
663.327,1.313
663.592,1.313
663.857,1.317
664.122,1.316
664.388,1.313
664.653,1.314
664.918,1.320
665.183,1.325
665.448,1.329
665.712,1.334
665.977,1.338
666.242,1.335
666.507,1.321
666.772,1.305
667.037,1.295
667.301,1.298
667.566,1.306
667.831,1.315
668.095,1.321
668.360,1.326
668.624,1.324
668.889,1.329
669.153,1.329
669.418,1.330
669.682,1.326
669.946,1.327
670.211,1.336
670.475,1.347
670.739,1.360
671.004,1.373
671.268,1.397
671.532,1.424
671.796,1.416
672.060,1.395
672.324,1.371
672.588,1.375
672.852,1.384
673.116,1.419
673.380,1.450
673.644,1.432
673.908,1.383
674.172,1.341
674.436,1.341
674.700,1.347
674.963,1.349
675.227,1.347
675.491,1.339
675.754,1.329
676.018,1.327
676.282,1.336
676.545,1.341
676.809,1.337
677.072,1.327
677.336,1.319
677.599,1.317
677.863,1.314
678.126,1.319
678.389,1.332
678.653,1.346
678.916,1.347
679.179,1.331
679.442,1.320
679.706,1.320
679.969,1.324
680.232,1.328
680.495,1.339
680.758,1.350
681.021,1.351
681.284,1.339
681.547,1.329
681.810,1.333
682.073,1.348
682.336,1.360
682.599,1.359
682.862,1.351
683.125,1.350
683.388,1.355
683.651,1.355
683.913,1.350
684.176,1.335
684.439,1.319
684.702,1.304
684.964,1.302
685.227,1.312
685.490,1.332
685.752,1.353
686.015,1.360
686.277,1.356
686.540,1.343
686.802,1.331
687.065,1.328
687.327,1.331
687.590,1.337
687.852,1.331
688.115,1.316
688.377,1.306
688.639,1.304
688.902,1.312
689.164,1.322
689.426,1.336
689.689,1.346
689.951,1.348
690.213,1.344
690.475,1.339
690.737,1.333
691.000,1.324
691.262,1.321
691.524,1.327
691.786,1.342
692.048,1.355
692.310,1.354
692.572,1.338
692.834,1.319
693.096,1.312
693.358,1.322
693.620,1.338
693.882,1.352
694.144,1.354
694.406,1.343
694.668,1.336
694.930,1.331
695.192,1.331
695.453,1.332
695.715,1.330
695.977,1.323
696.239,1.314
696.501,1.314
696.762,1.324
697.024,1.328
697.286,1.322
697.548,1.312
697.809,1.310
698.071,1.313
698.333,1.316
698.594,1.321
698.856,1.328
699.118,1.333
699.379,1.333
699.641,1.333
699.902,1.338
700.164,1.338
700.426,1.330
700.687,1.317
700.949,1.313
701.210,1.313
701.472,1.312
701.733,1.307
701.995,1.305
702.256,1.310
702.518,1.315
702.779,1.317
703.041,1.325
703.302,1.336
703.563,1.338
703.825,1.329
704.086,1.322
704.348,1.322
704.609,1.328
704.871,1.340
705.132,1.350
705.393,1.346
705.655,1.337
705.916,1.330
706.177,1.331
706.439,1.332
706.700,1.331
706.961,1.329
707.223,1.325
707.484,1.311
707.745,1.298
708.007,1.286
708.268,1.280
708.529,1.271
708.790,1.258
709.052,1.252
709.313,1.254
709.574,1.259
709.835,1.263
710.097,1.258
710.358,1.246
710.619,1.233
710.881,1.225
711.142,1.219
711.403,1.215
711.664,1.212
711.926,1.207
712.187,1.208
712.448,1.213
712.709,1.225
712.970,1.234
713.232,1.243
713.493,1.250
713.754,1.255
714.015,1.257
714.277,1.262
714.538,1.271
714.799,1.282
715.060,1.285
715.322,1.281
715.583,1.268
715.844,1.255
716.105,1.244
716.367,1.238
716.628,1.239
716.889,1.240
717.150,1.237
717.411,1.232
717.673,1.232
717.934,1.239
718.195,1.245
718.457,1.240
718.718,1.230
718.979,1.225
719.240,1.229
719.502,1.239
719.763,1.246
720.024,1.249
720.286,1.247
720.547,1.240
720.808,1.234
721.069,1.232
721.331,1.239
721.592,1.249
721.853,1.254
722.115,1.256
722.376,1.253
722.638,1.251
722.899,1.247
723.160,1.241
723.422,1.235
723.683,1.230
723.944,1.232
724.206,1.236
724.467,1.238
724.729,1.236
724.990,1.242
725.252,1.249
725.513,1.245
725.775,1.231
726.036,1.220
726.298,1.220
726.559,1.227
726.821,1.228
727.082,1.226
727.344,1.219
727.605,1.216
727.867,1.214
728.128,1.221
728.390,1.228
728.652,1.241
728.913,1.255
729.175,1.263
729.436,1.263
729.698,1.261
729.960,1.257
730.221,1.250
730.483,1.233
730.745,1.224
731.007,1.222
731.268,1.226
731.530,1.229
731.792,1.229
732.054,1.233
732.315,1.236
732.577,1.242
732.839,1.239
733.101,1.233
733.363,1.228
733.625,1.228
733.887,1.231
734.149,1.229
734.411,1.230
734.673,1.233
734.935,1.236
735.197,1.237
735.459,1.239
735.721,1.242
735.983,1.241
736.245,1.230
736.507,1.230
736.769,1.239
737.031,1.248
737.293,1.239
737.555,1.223
737.818,1.211
738.080,1.206
738.342,1.206
738.604,1.205
738.867,1.208
739.129,1.208
739.391,1.208
739.654,1.209
739.916,1.214
740.178,1.221
740.441,1.232
740.703,1.239
740.966,1.239
741.228,1.234
741.491,1.230
741.753,1.233
742.016,1.234
742.278,1.234
742.541,1.233
742.804,1.235
743.066,1.242
743.329,1.247
743.592,1.244
743.854,1.241
744.117,1.242
744.380,1.249
744.643,1.248
744.905,1.242
745.168,1.237
745.431,1.233
745.694,1.230
745.957,1.225
746.220,1.221
746.483,1.217
746.746,1.215
747.009,1.225
747.272,1.245
747.535,1.263
747.798,1.262
748.061,1.245
748.324,1.227
748.588,1.221
748.851,1.226
749.114,1.232
749.377,1.235
749.641,1.233
749.904,1.236
750.167,1.243
750.431,1.251
750.694,1.259
750.958,1.264
751.221,1.258
751.485,1.240
751.748,1.227
752.012,1.232
752.275,1.252
752.539,1.262
752.803,1.255
753.066,1.238
753.330,1.224
753.594,1.220
753.857,1.220
754.121,1.224
754.385,1.230
754.649,1.238
754.913,1.246
755.177,1.252
755.441,1.248
755.705,1.235
755.969,1.223
756.233,1.226
756.497,1.233
756.761,1.235
757.025,1.230
757.289,1.226
757.553,1.226
757.818,1.231
758.082,1.237
758.346,1.242
758.610,1.245
758.875,1.246
759.139,1.244
759.404,1.241
759.668,1.237
759.932,1.240
760.197,1.243
760.462,1.243
760.726,1.242
760.991,1.238
761.255,1.240
761.520,1.238
761.785,1.232
762.049,1.221
762.314,1.214
762.579,1.220
762.844,1.233
763.109,1.242
763.374,1.242
763.639,1.240
763.903,1.238
764.168,1.235
764.433,1.232
764.699,1.236
764.964,1.238
765.229,1.235
765.494,1.226
765.759,1.221
766.024,1.222
766.290,1.228
766.555,1.236
766.820,1.243
767.086,1.249
767.351,1.251
767.616,1.247
767.882,1.240
768.147,1.234
768.413,1.232
768.678,1.228
768.944,1.226
769.209,1.229
769.475,1.238
769.741,1.247
770.006,1.254
770.272,1.259
770.538,1.259
770.804,1.254
771.070,1.250
771.335,1.256
771.601,1.269
771.867,1.274
772.133,1.271
772.399,1.263
772.665,1.250
772.931,1.246
773.197,1.250
773.464,1.263
773.730,1.273
773.996,1.274
774.262,1.271
774.528,1.266
774.795,1.265
775.061,1.266
775.327,1.266
775.594,1.258
775.860,1.246
776.126,1.229
776.393,1.216
776.659,1.210
776.926,1.207
777.193,1.214
777.459,1.219
777.726,1.225
777.992,1.226
778.259,1.224
778.526,1.226
778.793,1.229
779.059,1.234
779.326,1.240
779.593,1.246
779.860,1.255
780.127,1.255
780.394,1.254
780.661,1.250
780.928,1.246
781.195,1.237
781.462,1.227
781.729,1.225
781.996,1.229
782.263,1.237
782.530,1.246
782.797,1.249
783.064,1.243
783.332,1.234
783.599,1.227
783.866,1.229
784.134,1.232
784.401,1.232
784.668,1.232
784.936,1.231
785.203,1.227
785.470,1.216
785.738,1.208
786.005,1.205
786.273,1.205
786.541,1.204
786.808,1.207
787.076,1.212
787.343,1.218
787.611,1.225
787.879,1.236
788.146,1.242
788.414,1.244
788.682,1.239
788.950,1.236
789.217,1.238
789.485,1.252
789.753,1.264
790.021,1.261
790.289,1.241
790.557,1.219
790.825,1.210
791.093,1.218
791.361,1.234
791.629,1.247
791.897,1.251
792.165,1.246
792.433,1.236
792.701,1.223
792.969,1.213
793.237,1.211
793.505,1.221
793.773,1.230
794.042,1.227
794.310,1.217
794.578,1.210
794.846,1.211
795.115,1.212
795.383,1.214
795.651,1.222
795.920,1.229
796.188,1.232
796.456,1.236
796.725,1.241
796.993,1.253
797.261,1.260
797.530,1.261
797.798,1.252
798.067,1.248
798.335,1.252
798.604,1.252
798.872,1.241
799.141,1.229
799.409,1.222
799.678,1.225
799.946,1.232
800.215,1.238
800.483,1.237
800.752,1.232
801.020,1.227
801.289,1.224
801.558,1.226
801.826,1.230
802.095,1.228
802.363,1.227
802.632,1.229
802.901,1.236
803.169,1.240
803.438,1.240
803.707,1.232
803.976,1.220
804.244,1.216
804.513,1.218
804.782,1.215
805.050,1.211
805.319,1.215
805.588,1.231
805.857,1.245
806.125,1.247
806.394,1.239
806.663,1.224
806.931,1.211
807.200,1.206
807.469,1.211
807.738,1.215
808.006,1.217
808.275,1.225
808.544,1.240
808.813,1.252
809.082,1.249
809.350,1.237
809.619,1.231
809.888,1.226
810.157,1.222
810.425,1.216
810.694,1.217
810.963,1.222
811.232,1.224
811.500,1.220
811.769,1.211
812.038,1.211
812.306,1.221
812.575,1.236
812.844,1.243
813.113,1.240
813.381,1.229
813.650,1.227
813.919,1.234
814.187,1.248
814.456,1.256
814.725,1.259
814.993,1.255
815.262,1.252
815.531,1.248
815.799,1.247
816.068,1.238
816.336,1.225
816.605,1.218
816.873,1.221
817.142,1.233
817.411,1.245
817.679,1.250
817.948,1.258
818.216,1.273
818.485,1.305
818.753,1.328
819.021,1.311
819.290,1.269
819.558,1.235
819.827,1.236
820.095,1.245
820.363,1.250
820.632,1.246
820.900,1.240
821.168,1.236
821.437,1.240
821.705,1.244
821.973,1.247
822.241,1.246
822.509,1.245
822.777,1.241
823.046,1.237
823.314,1.240
823.582,1.247
823.850,1.255
824.118,1.258
824.386,1.255
824.654,1.240
824.922,1.222
825.190,1.211
825.457,1.219
825.725,1.229
825.993,1.231
826.261,1.227
826.529,1.227
826.796,1.230
827.064,1.228
827.332,1.226
827.599,1.230
827.867,1.243
828.134,1.246
828.402,1.237
828.669,1.224
828.937,1.223
829.204,1.240
829.471,1.262
829.739,1.276
830.006,1.275
830.273,1.266
830.540,1.251
830.807,1.233
831.075,1.227
831.342,1.233
831.609,1.242
831.876,1.249
832.142,1.252
832.409,1.253
832.676,1.243
832.943,1.229
833.210,1.220
833.476,1.219
833.743,1.224
834.010,1.228
834.276,1.220
834.543,1.213
834.809,1.212
835.076,1.218
835.342,1.227
835.608,1.238
835.874,1.249
836.141,1.248
836.407,1.241
836.673,1.231
836.939,1.229
837.205,1.228
837.471,1.229
837.737,1.232
838.002,1.233
838.268,1.232
838.534,1.232
838.799,1.233
839.065,1.239
839.330,1.242
839.596,1.244
839.861,1.247
840.127,1.253
840.392,1.259
840.657,1.260
840.922,1.264
841.187,1.268
841.452,1.269
841.717,1.268
841.982,1.258
842.247,1.245
842.511,1.234
842.776,1.234
843.041,1.236
843.305,1.230
843.570,1.226
843.834,1.223
844.098,1.222
844.362,1.219
844.627,1.215
844.891,1.217
845.155,1.224
845.419,1.234
845.682,1.242
845.946,1.248
846.210,1.252
846.474,1.252
846.737,1.249
847.001,1.241
847.264,1.228
847.527,1.221
847.790,1.222
848.054,1.225
848.317,1.217
848.580,1.207
848.843,1.208
849.105,1.224
849.368,1.245
849.631,1.258
849.893,1.262
850.156,1.265
850.418,1.265
850.680,1.251
850.943,1.237
851.205,1.236
851.467,1.242
851.729,1.242
851.991,1.236
852.252,1.239
852.514,1.246
852.776,1.250
853.037,1.252
853.298,1.249
853.560,1.240
853.821,1.225
854.082,1.214
854.343,1.218
854.604,1.236
854.865,1.260
855.126,1.275
855.386,1.282
855.647,1.283
855.907,1.278
856.168,1.266
856.428,1.252
856.688,1.244
856.948,1.230
857.208,1.219
857.468,1.214
857.727,1.223
857.987,1.234
858.247,1.243
858.506,1.255
858.765,1.258
859.024,1.246
859.284,1.230
859.543,1.217
859.801,1.215
860.060,1.216
860.319,1.227
860.577,1.236
860.836,1.244
861.094,1.249
861.352,1.253
861.611,1.250
861.869,1.239
862.127,1.234
862.384,1.237
862.642,1.242
862.900,1.250
863.157,1.255
863.414,1.250
863.672,1.235
863.929,1.217
864.186,1.214
864.443,1.220
864.699,1.228
864.956,1.231
865.212,1.225
865.469,1.224
865.725,1.231
865.981,1.243
866.237,1.250
866.493,1.251
866.749,1.243
867.005,1.238
867.260,1.226
867.516,1.219
867.771,1.210
868.026,1.213
868.282,1.226
868.536,1.236
868.791,1.235
869.046,1.225
869.301,1.218
869.555,1.221
869.809,1.233
870.064,1.243
870.318,1.250
870.572,1.251
870.826,1.242
871.079,1.233
871.333,1.226
871.586,1.229
871.840,1.230
872.093,1.231
872.346,1.237
872.599,1.253
872.852,1.266
873.105,1.272
873.357,1.263
873.610,1.252
873.862,1.248
874.114,1.255
874.366,1.261
874.618,1.256
874.870,1.238
875.121,1.221
875.373,1.215
875.624,1.219
875.876,1.223
876.127,1.223
876.378,1.221
876.629,1.222
876.879,1.228
877.130,1.235
877.381,1.234
877.631,1.222
877.881,1.213
878.131,1.216
878.381,1.230
878.631,1.245
878.881,1.253
879.130,1.254
879.380,1.251
879.629,1.246
879.878,1.239
880.127,1.234
880.376,1.236
880.625,1.244
880.873,1.254
881.122,1.259
881.370,1.260
881.618,1.253
881.866,1.240
882.114,1.229
882.362,1.228
882.610,1.238
882.857,1.244
883.105,1.244
883.352,1.231
883.599,1.219
883.846,1.209
884.093,1.209
884.340,1.217
884.586,1.232
884.833,1.243
885.079,1.245
885.325,1.240
885.571,1.237
885.817,1.240
886.063,1.246
886.309,1.252
886.554,1.258
886.800,1.264
887.045,1.264
887.290,1.251
887.535,1.235
887.780,1.228
888.025,1.233
888.270,1.248
888.514,1.263
888.758,1.269
889.003,1.263
889.247,1.246
889.491,1.242
889.735,1.247
889.978,1.256
890.222,1.255
890.465,1.250
890.709,1.245
890.952,1.237
891.195,1.229
891.438,1.226
891.681,1.225
891.923,1.227
892.166,1.231
892.408,1.234
892.651,1.231
892.893,1.223
893.135,1.218
893.377,1.221
893.619,1.227
893.861,1.237
894.102,1.243
894.344,1.253
894.585,1.269
894.826,1.280
895.067,1.275
895.308,1.257
895.549,1.238
895.790,1.224
896.031,1.214
896.271,1.215
896.512,1.230
896.752,1.246
896.992,1.249
897.232,1.238
897.472,1.232
897.712,1.241
897.952,1.258
898.191,1.267
898.431,1.266
898.670,1.267
898.910,1.268
899.149,1.277
899.388,1.280
899.627,1.279
899.866,1.268
900.105,1.254
900.343,1.248
900.582,1.249
900.820,1.256
901.059,1.268
901.297,1.272
901.535,1.258
901.773,1.235
902.011,1.216
902.249,1.207
902.487,1.207
902.725,1.212
902.963,1.224
903.200,1.228
903.438,1.227
903.675,1.228
903.912,1.233
904.150,1.243
904.387,1.244
904.624,1.236
904.861,1.225
905.098,1.220
905.334,1.223
905.571,1.225
905.808,1.228
906.045,1.235
906.281,1.242
906.518,1.244
906.754,1.246
906.990,1.245
907.227,1.240
907.463,1.228
907.699,1.221
907.935,1.228
908.171,1.241
908.407,1.244
908.643,1.239
908.879,1.236
909.115,1.245
909.350,1.253
909.586,1.255
909.822,1.252
910.057,1.262
910.293,1.285
910.528,1.305
910.764,1.307
910.999,1.302
911.235,1.291
911.470,1.285
911.706,1.273
911.941,1.268
912.176,1.260
912.412,1.249
912.647,1.242
912.882,1.242
913.117,1.244
913.352,1.242
913.588,1.234
913.823,1.229
914.058,1.230
914.293,1.235
914.528,1.237
914.763,1.235
914.999,1.232
915.234,1.234
915.469,1.237
915.704,1.236
915.939,1.232
916.174,1.225
916.409,1.226
916.645,1.236
916.880,1.250
917.115,1.257
917.350,1.254
917.586,1.250
917.821,1.252
918.056,1.260
918.292,1.267
918.527,1.264
918.763,1.253
918.998,1.242
919.234,1.249
919.469,1.264
919.705,1.273
919.940,1.267
920.176,1.258
920.412,1.257
920.648,1.256
920.884,1.249
921.120,1.241
921.356,1.235
921.592,1.236
921.828,1.234
922.065,1.236
922.301,1.244
922.537,1.257
922.774,1.263
923.011,1.253
923.247,1.236
923.484,1.232
923.721,1.241
923.958,1.253
924.195,1.255
924.433,1.251
924.670,1.239
924.908,1.226
925.145,1.222
925.383,1.231
925.621,1.242
925.859,1.249
926.097,1.252
926.335,1.253
926.574,1.255
926.813,1.256
927.051,1.255
927.290,1.253
927.529,1.259
927.769,1.274
928.008,1.280
928.248,1.264
928.487,1.243
928.727,1.235
928.967,1.248
929.208,1.262
929.448,1.268
929.689,1.260
929.930,1.245
930.171,1.230
930.413,1.228
930.654,1.232
930.896,1.233
931.138,1.226
931.380,1.220
931.623,1.227
931.865,1.237
932.108,1.248
932.352,1.253
932.595,1.256
932.839,1.256
933.083,1.251
933.327,1.241
933.571,1.231
933.816,1.234
934.061,1.243
934.307,1.248
934.552,1.240
934.798,1.236
935.045,1.240
935.291,1.244
935.538,1.246
935.785,1.248
936.033,1.254
936.281,1.259
936.529,1.262
936.777,1.258
937.026,1.245
937.275,1.234
937.525,1.226
937.775,1.224
938.025,1.223
938.276,1.223
938.527,1.226
938.778,1.227
939.030,1.223
939.282,1.220
939.535,1.222
939.788,1.229
940.041,1.227
940.295,1.223
940.550,1.225
940.804,1.238
941.059,1.250
941.315,1.242
941.571,1.227
941.828,1.217
942.085,1.219
942.342,1.229
942.600,1.232
942.858,1.232
943.117,1.223
943.377,1.218
943.636,1.213
943.897,1.213
944.158,1.218
944.419,1.226
944.681,1.231
944.944,1.235
945.207,1.241
945.470,1.247
945.734,1.251
945.999,1.257
946.264,1.265
946.530,1.270
946.797,1.264
947.064,1.257
947.331,1.252
947.600,1.241
947.869,1.229
948.138,1.219
948.408,1.216
948.679,1.218
948.950,1.222
949.222,1.221
949.495,1.218
949.768,1.220
950.043,1.234
