Wavelength (nm),Intensity B13,,C:/Users/Brend/Desktop/LED Spectras v2/Spectrometer Data (Blue Condensed).sp,,,B13,
379.792,1.747,,2018-06-26 15:20:24,,Integration Time,111 ms,
380.000,1.744,,Analyze Light,,Number of Scans to Average,25,
380.209,1.740,,,,Smoothing,1,
380.418,1.747
380.627,1.762
380.837,1.776
381.048,1.783
381.259,1.781
381.471,1.780
381.683,1.786
381.896,1.796
382.110,1.803
382.324,1.807
382.538,1.815
382.753,1.821
382.969,1.817
383.185,1.808
383.402,1.802
383.619,1.810
383.837,1.826
384.055,1.846
384.274,1.863
384.493,1.871
384.712,1.875
384.932,1.880
385.153,1.888
385.374,1.896
385.596,1.901
385.818,1.910
386.040,1.920
386.263,1.931
386.487,1.935
386.710,1.935
386.935,1.931
387.159,1.928
387.385,1.921
387.610,1.917
387.836,1.920
388.063,1.930
388.289,1.942
388.517,1.951
388.744,1.959
388.972,1.969
389.201,1.975
389.430,1.979
389.659,1.982
389.889,1.987
390.119,1.993
390.349,1.997
390.580,2.005
390.811,2.013
391.042,2.018
391.274,2.023
391.507,2.029
391.739,2.035
391.972,2.036
392.205,2.042
392.439,2.048
392.673,2.058
392.907,2.063
393.142,2.071
393.377,2.079
393.612,2.091
393.848,2.098
394.084,2.106
394.320,2.112
394.557,2.124
394.794,2.129
395.031,2.137
395.269,2.142
395.507,2.152
395.745,2.156
395.983,2.163
396.222,2.170
396.461,2.183
396.700,2.197
396.940,2.209
397.180,2.213
397.420,2.209
397.660,2.205
397.901,2.205
398.142,2.209
398.383,2.209
398.625,2.203
398.866,2.210
399.108,2.230
399.351,2.264
399.593,2.277
399.836,2.281
400.079,2.273
400.322,2.266
400.566,2.255
400.809,2.250
401.053,2.251
401.298,2.264
401.542,2.279
401.787,2.294
402.031,2.301
402.277,2.308
402.522,2.309
402.767,2.313
403.013,2.309
403.259,2.313
403.505,2.318
403.752,2.323
403.998,2.325
404.245,2.336
404.492,2.349
404.739,2.357
404.986,2.360
405.234,2.364
405.482,2.369
405.730,2.369
405.978,2.367
406.226,2.366
406.475,2.365
406.723,2.371
406.972,2.388
407.221,2.409
407.470,2.421
407.720,2.426
407.969,2.421
408.219,2.426
408.469,2.431
408.719,2.443
408.969,2.448
409.219,2.457
409.470,2.466
409.720,2.480
409.971,2.491
410.222,2.505
410.473,2.511
410.724,2.518
410.976,2.520
411.227,2.530
411.479,2.535
411.731,2.542
411.983,2.547
412.235,2.556
412.487,2.557
412.740,2.558
412.992,2.556
413.245,2.562
413.497,2.562
413.750,2.569
414.003,2.568
414.257,2.574
414.510,2.576
414.763,2.589
415.017,2.596
415.270,2.600
415.524,2.600
415.778,2.604
416.032,2.611
416.286,2.620
416.540,2.631
416.794,2.645
417.049,2.652
417.303,2.659
417.558,2.665
417.812,2.674
418.067,2.678
418.322,2.678
418.577,2.674
418.832,2.674
419.088,2.665
419.343,2.666
419.598,2.661
419.854,2.671
420.109,2.678
420.365,2.696
420.621,2.703
420.876,2.711
421.132,2.710
421.388,2.709
421.645,2.703
421.901,2.704
422.157,2.706
422.413,2.711
422.670,2.710
422.926,2.713
423.183,2.716
423.439,2.730
423.696,2.746
423.953,2.772
424.210,2.787
424.467,2.794
424.724,2.795
424.981,2.798
425.238,2.809
425.495,2.828
425.753,2.841
426.010,2.860
426.267,2.877
426.525,2.913
426.782,2.940
427.040,2.969
427.298,2.997
427.555,3.041
427.813,3.077
428.071,3.116
428.329,3.152
428.587,3.198
428.845,3.244
429.103,3.295
429.361,3.345
429.619,3.401
429.878,3.458
430.136,3.523
430.394,3.588
430.653,3.673
430.911,3.766
431.170,3.862
431.428,3.939
431.687,4.016
431.946,4.096
432.204,4.197
432.463,4.309
432.722,4.432
432.981,4.556
433.240,4.699
433.499,4.849
433.758,5.012
434.017,5.161
434.276,5.316
434.535,5.465
434.794,5.635
435.053,5.812
435.312,6.008
435.572,6.208
435.831,6.427
436.090,6.655
436.350,6.901
436.609,7.153
436.869,7.416
437.128,7.692
437.388,7.979
437.647,8.273
437.907,8.579
438.166,8.887
438.426,9.214
438.686,9.543
438.946,9.898
439.205,10.257
439.465,10.642
439.725,11.045
439.985,11.465
440.245,11.885
440.505,12.326
440.765,12.777
441.025,13.244
441.285,13.719
441.545,14.205
441.805,14.705
442.065,15.219
442.325,15.756
442.585,16.325
442.846,16.918
443.106,17.543
443.366,18.187
443.626,18.850
443.887,19.527
444.147,20.240
444.407,20.979
444.668,21.755
444.928,22.552
445.189,23.395
445.449,24.272
445.710,25.179
445.970,26.126
446.231,27.121
446.491,28.175
446.752,29.279
447.012,30.429
447.273,31.634
447.534,32.876
447.794,34.163
448.055,35.505
448.316,36.938
448.577,38.466
448.837,40.080
449.098,41.762
449.359,43.507
449.620,45.304
449.881,47.145
450.142,49.036
450.403,50.999
450.664,53.054
450.924,55.194
451.185,57.418
451.446,59.688
451.707,61.997
451.969,64.324
452.230,66.681
452.491,69.064
452.752,71.443
453.013,73.783
453.274,76.080
453.535,78.324
453.796,80.502
454.058,82.524
454.319,84.298
454.580,85.764
454.841,86.962
455.103,87.960
455.364,88.828
455.625,89.576
455.887,90.233
456.148,90.790
456.409,91.248
456.671,91.607
456.932,91.877
457.194,92.085
457.455,92.225
457.716,92.300
457.978,92.307
458.239,92.249
458.501,92.135
458.763,91.965
459.024,91.744
459.286,91.465
459.547,91.117
459.809,90.671
460.071,90.131
460.332,89.477
460.594,88.751
460.856,87.923
461.117,86.982
461.379,85.864
461.641,84.518
461.903,82.899
462.164,81.077
462.426,79.154
462.688,77.228
462.950,75.303
463.212,73.369
463.474,71.439
463.736,69.536
463.998,67.710
464.260,65.968
464.522,64.320
464.784,62.759
465.046,61.280
465.308,59.897
465.570,58.576
465.832,57.322
466.094,56.113
466.356,54.954
466.618,53.845
466.880,52.785
467.142,51.770
467.405,50.823
467.667,49.923
467.929,49.081
468.191,48.271
468.454,47.492
468.716,46.737
468.978,45.975
469.241,45.220
469.503,44.477
469.765,43.772
470.028,43.089
470.290,42.405
470.552,41.735
470.815,41.058
471.077,40.388
471.340,39.702
471.602,39.016
471.865,38.328
472.128,37.636
472.390,36.948
472.653,36.252
472.915,35.552
473.178,34.821
473.441,34.084
473.703,33.312
473.966,32.539
474.229,31.741
474.492,30.956
474.755,30.158
475.017,29.392
475.280,28.637
475.543,27.909
475.806,27.157
476.069,26.407
476.332,25.649
476.595,24.917
476.858,24.195
477.121,23.486
477.384,22.796
477.647,22.127
477.910,21.484
478.173,20.854
478.436,20.239
478.699,19.654
478.962,19.084
479.226,18.553
479.489,18.035
479.752,17.537
480.015,17.041
480.279,16.563
480.542,16.102
480.805,15.661
481.069,15.228
481.332,14.824
481.595,14.438
481.859,14.089
482.122,13.747
482.386,13.417
482.649,13.083
482.913,12.762
483.177,12.449
483.440,12.151
483.704,11.869
483.967,11.611
484.231,11.364
484.495,11.122
484.759,10.873
485.022,10.624
485.286,10.376
485.550,10.136
485.814,9.885
486.078,9.641
486.342,9.399
486.606,9.188
486.869,8.985
487.133,8.798
487.397,8.611
487.662,8.425
487.926,8.228
488.190,8.033
488.454,7.827
488.718,7.634
488.982,7.428
489.246,7.245
489.511,7.054
489.775,6.874
490.039,6.688
490.304,6.506
490.568,6.320
490.832,6.145
491.097,5.982
491.361,5.835
491.626,5.679
491.890,5.528
492.155,5.374
492.419,5.241
492.684,5.094
492.949,4.948
493.213,4.793
493.478,4.656
493.743,4.520
494.008,4.384
494.272,4.249
494.537,4.133
494.802,4.027
495.067,3.936
495.332,3.837
495.597,3.750
495.862,3.649
496.127,3.559
496.392,3.463
496.657,3.375
496.922,3.288
497.187,3.212
497.452,3.137
497.718,3.079
497.983,3.017
498.248,2.962
498.513,2.896
498.779,2.847
499.044,2.802
499.310,2.754
499.575,2.688
499.841,2.629
500.106,2.578
500.372,2.532
500.637,2.492
500.903,2.465
501.168,2.436
501.434,2.398
501.700,2.351
501.966,2.316
502.231,2.281
502.497,2.248
502.763,2.209
503.029,2.177
503.295,2.154
503.561,2.133
503.827,2.114
504.093,2.090
504.359,2.063
504.625,2.040
504.891,2.016
505.157,2.000
505.423,1.978
505.690,1.957
505.956,1.932
506.222,1.920
506.489,1.916
506.755,1.917
507.021,1.913
507.288,1.902
507.554,1.881
507.821,1.858
508.087,1.836
508.354,1.828
508.621,1.819
508.887,1.805
509.154,1.789
509.421,1.775
509.687,1.755
509.954,1.731
510.221,1.710
510.488,1.706
510.755,1.708
511.022,1.711
511.289,1.704
511.556,1.691
511.823,1.679
512.090,1.675
512.357,1.667
512.624,1.659
512.891,1.647
513.159,1.636
513.426,1.621
513.693,1.614
513.960,1.610
514.228,1.611
514.495,1.611
514.763,1.608
515.030,1.600
515.298,1.588
515.565,1.579
515.833,1.576
516.100,1.567
516.368,1.563
516.636,1.559
516.904,1.559
517.171,1.547
517.439,1.539
517.707,1.534
517.975,1.536
518.243,1.540
518.511,1.538
518.779,1.524
519.047,1.518
519.315,1.510
519.583,1.507
519.851,1.490
520.119,1.484
520.387,1.484
520.656,1.487
520.924,1.485
521.192,1.481
521.461,1.476
521.729,1.474
521.997,1.474
522.266,1.473
522.534,1.469
522.803,1.469
523.071,1.466
523.340,1.459
523.609,1.451
523.877,1.445
524.146,1.443
524.415,1.443
524.684,1.445
524.952,1.445
525.221,1.444
525.490,1.445
525.759,1.447
526.028,1.445
526.297,1.436
526.566,1.431
526.835,1.426
527.104,1.426
527.373,1.427
527.642,1.425
527.912,1.420
528.181,1.411
528.450,1.409
528.719,1.410
528.989,1.419
529.258,1.427
529.528,1.429
529.797,1.422
530.067,1.414
530.336,1.411
530.606,1.411
530.875,1.408
531.145,1.406
531.414,1.406
531.684,1.408
531.954,1.410
532.224,1.404
532.493,1.392
532.763,1.384
533.033,1.383
533.303,1.389
533.573,1.392
533.843,1.387
534.113,1.382
534.383,1.375
534.653,1.374
534.923,1.376
535.193,1.381
535.463,1.389
535.733,1.399
536.004,1.408
536.274,1.412
536.544,1.409
536.814,1.401
537.085,1.394
537.355,1.391
537.626,1.397
537.896,1.402
538.166,1.402
538.437,1.397
538.707,1.392
538.978,1.391
539.249,1.396
539.519,1.398
539.790,1.392
540.061,1.386
540.331,1.388
540.602,1.396
540.873,1.403
541.144,1.407
541.414,1.407
541.685,1.403
541.956,1.398
542.227,1.394
542.498,1.390
542.769,1.387
543.040,1.393
543.311,1.402
543.582,1.411
543.853,1.413
544.124,1.416
544.396,1.417
544.667,1.416
544.938,1.411
545.209,1.396
545.480,1.387
545.752,1.382
546.023,1.389
546.294,1.390
546.566,1.386
546.837,1.379
547.109,1.372
547.380,1.366
547.652,1.359
547.923,1.356
548.195,1.359
548.466,1.371
548.738,1.383
549.009,1.386
549.281,1.381
549.553,1.369
549.824,1.354
550.096,1.345
550.368,1.343
550.640,1.348
550.911,1.358
551.183,1.372
551.455,1.390
551.727,1.399
551.999,1.394
552.271,1.381
552.543,1.369
552.815,1.362
553.087,1.366
553.359,1.374
553.631,1.383
553.903,1.383
554.175,1.383
554.447,1.384
554.719,1.385
554.991,1.382
555.263,1.379
555.535,1.374
555.808,1.368
556.080,1.360
556.352,1.357
556.624,1.355
556.897,1.354
557.169,1.351
557.441,1.344
557.714,1.340
557.986,1.339
558.258,1.340
558.531,1.347
558.803,1.354
559.076,1.360
559.348,1.358
559.621,1.351
559.893,1.347
560.166,1.346
560.438,1.347
560.711,1.345
560.983,1.343
561.256,1.344
561.528,1.349
561.801,1.353
562.074,1.358
562.346,1.364
562.619,1.369
562.892,1.368
563.164,1.367
563.437,1.369
563.710,1.369
563.983,1.360
564.255,1.348
564.528,1.346
564.801,1.354
565.074,1.358
565.346,1.356
565.619,1.354
565.892,1.356
566.165,1.356
566.438,1.350
566.711,1.341
566.984,1.334
567.257,1.332
567.529,1.336
567.802,1.349
568.075,1.361
568.348,1.364
568.621,1.362
568.894,1.359
569.167,1.359
569.440,1.354
569.713,1.342
569.986,1.335
570.259,1.330
570.532,1.333
570.805,1.336
571.078,1.340
571.351,1.345
571.625,1.349
571.898,1.347
572.171,1.338
572.444,1.331
572.717,1.334
572.990,1.342
573.263,1.343
573.536,1.337
573.809,1.327
574.083,1.320
574.356,1.321
574.629,1.332
574.902,1.342
575.175,1.342
575.448,1.330
575.721,1.320
575.995,1.315
576.268,1.316
576.541,1.325
576.814,1.336
577.087,1.348
577.361,1.351
577.634,1.348
577.907,1.337
578.180,1.326
578.453,1.324
578.727,1.327
579.000,1.331
579.273,1.336
579.546,1.345
579.820,1.354
580.093,1.352
580.366,1.343
580.639,1.331
580.913,1.326
581.186,1.323
581.459,1.323
581.732,1.317
582.005,1.313
582.279,1.309
582.552,1.314
582.825,1.321
583.098,1.328
583.372,1.334
583.645,1.335
583.918,1.338
584.191,1.339
584.464,1.340
584.738,1.340
585.011,1.339
585.284,1.335
585.557,1.327
585.831,1.324
586.104,1.331
586.377,1.347
586.650,1.355
586.923,1.354
587.196,1.345
587.470,1.339
587.743,1.337
588.016,1.337
588.289,1.339
588.562,1.344
588.835,1.344
589.109,1.336
589.382,1.323
589.655,1.314
589.928,1.312
590.201,1.313
590.474,1.319
590.747,1.328
591.020,1.336
591.293,1.339
591.567,1.337
591.840,1.332
592.113,1.327
592.386,1.321
592.659,1.314
592.932,1.312
593.205,1.318
593.478,1.323
593.751,1.325
594.024,1.320
594.297,1.315
594.570,1.312
594.843,1.316
595.116,1.326
595.389,1.330
595.662,1.329
595.934,1.327
596.207,1.331
596.480,1.338
596.753,1.341
597.026,1.341
597.299,1.338
597.572,1.336
597.844,1.333
598.117,1.327
598.390,1.319
598.663,1.314
598.936,1.315
599.208,1.318
599.481,1.322
599.754,1.322
600.026,1.315
600.299,1.307
600.572,1.301
600.844,1.301
601.117,1.300
601.390,1.302
601.662,1.306
601.935,1.308
602.207,1.309
602.480,1.310
602.752,1.311
603.025,1.306
603.297,1.304
603.570,1.310
603.842,1.323
604.115,1.331
604.387,1.335
604.660,1.330
604.932,1.326
605.204,1.324
605.477,1.329
605.749,1.337
606.021,1.344
606.294,1.346
606.566,1.343
606.838,1.339
607.110,1.338
607.383,1.339
607.655,1.340
607.927,1.344
608.199,1.351
608.471,1.353
608.743,1.345
609.015,1.337
609.287,1.333
609.559,1.334
609.831,1.338
610.103,1.341
610.375,1.341
610.647,1.334
610.919,1.326
611.191,1.325
611.463,1.328
611.735,1.331
612.007,1.328
612.278,1.325
612.550,1.325
612.822,1.328
613.094,1.331
613.365,1.333
613.637,1.336
613.909,1.339
614.180,1.339
614.452,1.331
614.723,1.322
614.995,1.313
615.266,1.314
615.538,1.319
615.809,1.323
616.081,1.319
616.352,1.313
616.623,1.309
616.895,1.308
617.166,1.307
617.437,1.306
617.709,1.305
617.980,1.305
618.251,1.309
618.522,1.318
618.793,1.330
619.065,1.343
619.336,1.342
619.607,1.335
619.878,1.330
620.149,1.338
620.420,1.343
620.691,1.339
620.962,1.335
621.232,1.336
621.503,1.330
621.774,1.325
622.045,1.321
622.316,1.329
622.586,1.336
622.857,1.340
623.128,1.340
623.398,1.337
623.669,1.331
623.940,1.322
624.210,1.317
624.481,1.321
624.751,1.325
625.021,1.323
625.292,1.314
625.562,1.308
625.833,1.304
626.103,1.299
626.373,1.296
626.643,1.299
626.914,1.307
627.184,1.315
627.454,1.315
627.724,1.312
627.994,1.311
628.264,1.315
628.534,1.313
628.804,1.309
629.074,1.306
629.344,1.312
629.614,1.315
629.884,1.310
630.154,1.300
630.424,1.291
630.693,1.285
630.963,1.279
631.233,1.274
631.502,1.280
631.772,1.294
632.041,1.306
632.311,1.309
632.581,1.306
632.850,1.306
633.119,1.303
633.389,1.298
633.658,1.292
633.928,1.293
634.197,1.300
634.466,1.312
634.735,1.321
635.004,1.320
635.274,1.316
635.543,1.310
635.812,1.305
636.081,1.302
636.350,1.303
636.619,1.309
636.888,1.314
637.157,1.314
637.426,1.312
637.694,1.308
637.963,1.305
638.232,1.305
638.501,1.305
638.769,1.310
639.038,1.313
639.307,1.321
639.575,1.326
639.844,1.325
640.112,1.317
640.381,1.304
640.649,1.300
640.917,1.300
641.186,1.304
641.454,1.308
641.722,1.308
641.991,1.305
642.259,1.296
642.527,1.294
642.795,1.292
643.063,1.287
643.331,1.282
643.599,1.283
643.867,1.291
644.135,1.298
644.403,1.302
644.671,1.303
644.939,1.309
645.206,1.315
645.474,1.320
645.742,1.313
646.009,1.300
646.277,1.291
646.545,1.292
646.812,1.304
647.080,1.316
647.347,1.324
647.615,1.322
647.882,1.314
648.149,1.306
648.417,1.299
648.684,1.301
648.951,1.305
649.219,1.310
649.486,1.310
649.753,1.307
650.020,1.298
650.287,1.289
650.554,1.285
650.821,1.288
651.088,1.292
651.355,1.299
651.622,1.303
651.889,1.306
652.155,1.303
652.422,1.304
652.689,1.308
652.956,1.311
653.222,1.315
653.489,1.320
653.755,1.323
654.022,1.317
654.288,1.305
654.555,1.298
654.821,1.302
655.088,1.309
655.354,1.317
655.620,1.322
655.887,1.324
656.153,1.323
656.419,1.319
656.685,1.313
656.951,1.310
657.217,1.307
657.483,1.302
657.749,1.299
658.015,1.298
658.281,1.301
658.547,1.301
658.813,1.300
659.079,1.297
659.345,1.297
659.610,1.298
659.876,1.297
660.142,1.294
660.407,1.291
660.673,1.294
660.939,1.298
661.204,1.300
661.470,1.299
661.735,1.296
662.000,1.295
662.266,1.294
662.531,1.293
662.796,1.290
663.062,1.285
663.327,1.278
663.592,1.278
663.857,1.282
664.122,1.288
664.388,1.285
664.653,1.287
664.918,1.291
665.183,1.296
665.448,1.299
665.712,1.302
665.977,1.308
666.242,1.308
666.507,1.296
666.772,1.283
667.037,1.272
667.301,1.273
667.566,1.278
667.831,1.286
668.095,1.291
668.360,1.295
668.624,1.293
668.889,1.296
669.153,1.293
669.418,1.292
669.682,1.293
669.946,1.300
670.211,1.309
670.475,1.314
670.739,1.321
671.004,1.330
671.268,1.347
671.532,1.363
671.796,1.355
672.060,1.338
672.324,1.321
672.588,1.324
672.852,1.335
673.116,1.363
673.380,1.386
673.644,1.370
673.908,1.331
674.172,1.298
674.436,1.299
674.700,1.304
674.963,1.306
675.227,1.306
675.491,1.301
675.754,1.295
676.018,1.291
676.282,1.298
676.545,1.304
676.809,1.303
677.072,1.293
677.336,1.285
677.599,1.286
677.863,1.287
678.126,1.289
678.389,1.294
678.653,1.302
678.916,1.304
679.179,1.298
679.442,1.296
679.706,1.298
679.969,1.302
680.232,1.307
680.495,1.314
680.758,1.320
681.021,1.317
681.284,1.307
681.547,1.296
681.810,1.299
682.073,1.309
682.336,1.318
682.599,1.316
682.862,1.310
683.125,1.308
683.388,1.307
683.651,1.306
683.913,1.301
684.176,1.297
684.439,1.290
684.702,1.283
684.964,1.279
685.227,1.282
685.490,1.294
685.752,1.309
686.015,1.312
686.277,1.307
686.540,1.298
686.802,1.294
687.065,1.295
687.327,1.296
687.590,1.298
687.852,1.294
688.115,1.286
688.377,1.284
688.639,1.285
688.902,1.288
689.164,1.292
689.426,1.300
689.689,1.306
689.951,1.304
690.213,1.301
690.475,1.301
690.737,1.304
691.000,1.303
691.262,1.302
691.524,1.303
691.786,1.309
692.048,1.314
692.310,1.311
692.572,1.296
692.834,1.279
693.096,1.275
693.358,1.284
693.620,1.298
693.882,1.309
694.144,1.313
694.406,1.309
694.668,1.305
694.930,1.297
695.192,1.292
695.453,1.288
695.715,1.289
695.977,1.286
696.239,1.283
696.501,1.282
696.762,1.287
697.024,1.290
697.286,1.288
697.548,1.285
697.809,1.284
698.071,1.283
698.333,1.279
698.594,1.279
698.856,1.286
699.118,1.293
699.379,1.297
699.641,1.300
699.902,1.305
700.164,1.305
700.426,1.298
700.687,1.288
700.949,1.288
701.210,1.290
701.472,1.290
701.733,1.286
701.995,1.286
702.256,1.288
702.518,1.288
702.779,1.287
703.041,1.295
703.302,1.305
703.563,1.307
703.825,1.298
704.086,1.287
704.348,1.282
704.609,1.287
704.871,1.301
705.132,1.314
705.393,1.312
705.655,1.303
705.916,1.295
706.177,1.296
706.439,1.298
706.700,1.300
706.961,1.298
707.223,1.293
707.484,1.278
707.745,1.267
708.007,1.256
708.268,1.249
708.529,1.237
708.790,1.222
709.052,1.216
709.313,1.220
709.574,1.228
709.835,1.232
710.097,1.226
710.358,1.211
710.619,1.197
710.881,1.186
711.142,1.180
711.403,1.176
711.664,1.175
711.926,1.173
712.187,1.179
712.448,1.187
712.709,1.200
712.970,1.209
713.232,1.214
713.493,1.215
713.754,1.214
714.015,1.214
714.277,1.216
714.538,1.221
714.799,1.227
715.060,1.228
715.322,1.222
715.583,1.213
715.844,1.206
716.105,1.203
716.367,1.200
716.628,1.200
716.889,1.198
717.150,1.195
717.411,1.189
717.673,1.190
717.934,1.194
718.195,1.199
718.457,1.195
718.718,1.188
718.979,1.186
719.240,1.191
719.502,1.199
719.763,1.203
720.024,1.205
720.286,1.204
720.547,1.198
720.808,1.195
721.069,1.194
721.331,1.202
721.592,1.209
721.853,1.214
722.115,1.214
722.376,1.213
722.638,1.209
722.899,1.206
723.160,1.202
723.422,1.200
723.683,1.200
723.944,1.202
724.206,1.201
724.467,1.198
724.729,1.192
724.990,1.192
725.252,1.192
725.513,1.187
725.775,1.176
726.036,1.171
726.298,1.176
726.559,1.185
726.821,1.186
727.082,1.179
727.344,1.172
727.605,1.171
727.867,1.176
728.128,1.183
728.390,1.188
728.652,1.195
728.913,1.202
729.175,1.207
729.436,1.208
729.698,1.206
729.960,1.201
730.221,1.195
730.483,1.186
730.745,1.185
731.007,1.186
731.268,1.191
731.530,1.193
731.792,1.196
732.054,1.197
732.315,1.196
732.577,1.194
732.839,1.187
733.101,1.183
733.363,1.183
733.625,1.183
733.887,1.186
734.149,1.187
734.411,1.195
734.673,1.200
734.935,1.202
735.197,1.200
735.459,1.200
735.721,1.204
735.983,1.202
736.245,1.193
736.507,1.190
736.769,1.193
737.031,1.196
737.293,1.190
737.555,1.184
737.818,1.177
738.080,1.172
738.342,1.168
738.604,1.170
738.867,1.174
739.129,1.176
739.391,1.176
739.654,1.175
739.916,1.176
740.178,1.182
740.441,1.188
740.703,1.190
740.966,1.186
741.228,1.184
741.491,1.186
741.753,1.195
742.016,1.197
742.278,1.195
742.541,1.188
742.804,1.183
743.066,1.184
743.329,1.186
743.592,1.188
743.854,1.194
744.117,1.199
744.380,1.203
744.643,1.198
744.905,1.194
745.168,1.192
745.431,1.189
745.694,1.183
745.957,1.177
746.220,1.173
746.483,1.173
746.746,1.177
747.009,1.190
747.272,1.207
747.535,1.218
747.798,1.216
748.061,1.202
748.324,1.186
748.588,1.176
748.851,1.173
749.114,1.174
749.377,1.174
749.641,1.176
749.904,1.183
750.167,1.191
750.431,1.200
750.694,1.206
750.958,1.208
751.221,1.202
751.485,1.186
751.748,1.176
752.012,1.179
752.275,1.195
752.539,1.201
752.803,1.197
753.066,1.186
753.330,1.180
753.594,1.180
753.857,1.183
754.121,1.187
754.385,1.193
754.649,1.196
754.913,1.200
755.177,1.202
755.441,1.202
755.705,1.195
755.969,1.188
756.233,1.189
756.497,1.194
756.761,1.197
757.025,1.195
757.289,1.191
757.553,1.190
757.818,1.192
758.082,1.194
758.346,1.193
758.610,1.190
758.875,1.186
759.139,1.182
759.404,1.178
759.668,1.177
759.932,1.183
760.197,1.191
760.462,1.198
760.726,1.198
760.991,1.198
761.255,1.198
761.520,1.196
761.785,1.190
762.049,1.181
762.314,1.178
762.579,1.182
762.844,1.191
763.109,1.196
763.374,1.193
763.639,1.189
763.903,1.186
764.168,1.186
764.433,1.188
764.699,1.195
764.964,1.197
765.229,1.193
765.494,1.183
765.759,1.180
766.024,1.184
766.290,1.194
766.555,1.203
766.820,1.203
767.086,1.200
767.351,1.199
767.616,1.201
767.882,1.199
768.147,1.193
768.413,1.187
768.678,1.185
768.944,1.187
769.209,1.189
769.475,1.194
769.741,1.200
770.006,1.206
770.272,1.209
770.538,1.205
770.804,1.201
771.070,1.202
771.335,1.209
771.601,1.218
771.867,1.219
772.133,1.216
772.399,1.207
772.665,1.201
772.931,1.202
773.197,1.209
773.464,1.216
773.730,1.219
773.996,1.220
774.262,1.222
774.528,1.221
774.795,1.222
775.061,1.226
775.327,1.225
775.594,1.215
775.860,1.199
776.126,1.186
776.393,1.178
776.659,1.175
776.926,1.173
777.193,1.174
777.459,1.176
777.726,1.177
777.992,1.176
778.259,1.172
778.526,1.173
778.793,1.179
779.059,1.188
779.326,1.196
779.593,1.201
779.860,1.207
780.127,1.208
780.394,1.207
780.661,1.202
780.928,1.192
781.195,1.183
781.462,1.177
781.729,1.178
781.996,1.181
782.263,1.184
782.530,1.191
782.797,1.195
783.064,1.193
783.332,1.189
783.599,1.185
783.866,1.186
784.134,1.185
784.401,1.183
784.668,1.184
784.936,1.188
785.203,1.184
785.470,1.174
785.738,1.168
786.005,1.173
786.273,1.179
786.541,1.181
786.808,1.184
787.076,1.185
787.343,1.188
787.611,1.193
787.879,1.201
788.146,1.204
788.414,1.205
788.682,1.201
788.950,1.198
789.217,1.194
789.485,1.199
789.753,1.204
790.021,1.202
790.289,1.189
790.557,1.176
790.825,1.171
791.093,1.181
791.361,1.196
791.629,1.210
791.897,1.213
792.165,1.207
792.433,1.197
792.701,1.183
792.969,1.172
793.237,1.165
793.505,1.172
793.773,1.184
794.042,1.190
794.310,1.187
794.578,1.183
794.846,1.180
795.115,1.178
795.383,1.178
795.651,1.185
795.920,1.190
796.188,1.192
796.456,1.196
796.725,1.198
796.993,1.205
797.261,1.208
797.530,1.209
797.798,1.205
798.067,1.202
798.335,1.201
798.604,1.198
798.872,1.189
799.141,1.180
799.409,1.177
799.678,1.181
799.946,1.190
800.215,1.194
800.483,1.194
800.752,1.192
801.020,1.194
801.289,1.195
801.558,1.197
801.826,1.197
802.095,1.194
802.363,1.193
802.632,1.196
802.901,1.202
803.169,1.207
803.438,1.208
803.707,1.203
803.976,1.195
804.244,1.189
804.513,1.187
804.782,1.182
805.050,1.177
805.319,1.179
805.588,1.190
805.857,1.198
806.125,1.198
806.394,1.188
806.663,1.180
806.931,1.173
807.200,1.172
807.469,1.174
807.738,1.175
808.006,1.175
808.275,1.181
808.544,1.189
808.813,1.198
809.082,1.196
809.350,1.194
809.619,1.191
809.888,1.186
810.157,1.181
810.425,1.178
810.694,1.180
810.963,1.183
811.232,1.180
811.500,1.175
811.769,1.169
812.038,1.171
812.306,1.178
812.575,1.188
812.844,1.193
813.113,1.194
813.381,1.189
813.650,1.187
813.919,1.190
814.187,1.196
814.456,1.200
814.725,1.200
814.993,1.197
815.262,1.195
815.531,1.194
815.799,1.193
816.068,1.186
816.336,1.177
816.605,1.173
816.873,1.175
817.142,1.182
817.411,1.187
817.679,1.191
817.948,1.196
818.216,1.206
818.485,1.230
818.753,1.249
819.021,1.239
819.290,1.209
819.558,1.187
819.827,1.188
820.095,1.194
820.363,1.194
820.632,1.194
820.900,1.195
821.168,1.198
821.437,1.201
821.705,1.204
821.973,1.206
822.241,1.207
822.509,1.205
822.777,1.199
823.046,1.193
823.314,1.193
823.582,1.200
823.850,1.203
824.118,1.204
824.386,1.200
824.654,1.189
824.922,1.179
825.190,1.173
825.457,1.179
825.725,1.186
825.993,1.187
826.261,1.187
826.529,1.186
826.796,1.187
827.064,1.185
827.332,1.182
827.599,1.185
827.867,1.192
828.134,1.196
828.402,1.191
828.669,1.184
828.937,1.181
829.204,1.187
829.471,1.199
829.739,1.208
830.006,1.209
830.273,1.202
830.540,1.194
830.807,1.185
831.075,1.182
831.342,1.184
831.609,1.186
831.876,1.188
832.142,1.190
832.409,1.193
832.676,1.190
832.943,1.182
833.210,1.176
833.476,1.172
833.743,1.175
834.010,1.179
834.276,1.179
834.543,1.173
834.809,1.172
835.076,1.175
835.342,1.179
835.608,1.184
835.874,1.191
836.141,1.193
836.407,1.190
836.673,1.187
836.939,1.188
837.205,1.186
837.471,1.181
837.737,1.179
838.002,1.177
838.268,1.179
838.534,1.181
838.799,1.185
839.065,1.190
839.330,1.194
839.596,1.198
839.861,1.201
840.127,1.204
840.392,1.203
840.657,1.202
840.922,1.207
841.187,1.216
841.452,1.218
841.717,1.215
841.982,1.205
842.247,1.194
842.511,1.187
842.776,1.187
843.041,1.191
843.305,1.188
843.570,1.184
843.834,1.182
844.098,1.183
844.362,1.184
844.627,1.181
844.891,1.179
845.155,1.179
845.419,1.183
845.682,1.186
845.946,1.190
846.210,1.190
846.474,1.189
846.737,1.193
847.001,1.192
847.264,1.184
847.527,1.179
847.790,1.182
848.054,1.187
848.317,1.184
848.580,1.179
848.843,1.181
849.105,1.190
849.368,1.201
849.631,1.206
849.893,1.208
850.156,1.212
850.418,1.214
850.680,1.203
850.943,1.194
851.205,1.195
851.467,1.199
851.729,1.196
851.991,1.189
852.252,1.191
852.514,1.198
852.776,1.205
853.037,1.210
853.298,1.208
853.560,1.201
853.821,1.189
854.082,1.180
854.343,1.179
854.604,1.190
854.865,1.205
855.126,1.216
855.386,1.222
855.647,1.223
855.907,1.218
856.168,1.205
856.428,1.195
856.688,1.189
856.948,1.184
857.208,1.182
857.468,1.184
857.727,1.191
857.987,1.193
858.247,1.195
858.506,1.199
858.765,1.201
859.024,1.193
859.284,1.184
859.543,1.181
859.801,1.184
860.060,1.186
860.319,1.195
860.577,1.204
860.836,1.208
861.094,1.207
861.352,1.206
861.611,1.202
861.869,1.194
862.127,1.189
862.384,1.191
862.642,1.195
862.900,1.201
863.157,1.204
863.414,1.202
863.672,1.194
863.929,1.183
864.186,1.182
864.443,1.185
864.699,1.190
864.956,1.190
865.212,1.183
865.469,1.181
865.725,1.186
865.981,1.196
866.237,1.200
866.493,1.199
866.749,1.189
867.005,1.185
867.260,1.177
867.516,1.176
867.771,1.172
868.026,1.173
868.282,1.179
868.536,1.186
868.791,1.186
869.046,1.179
869.301,1.174
869.555,1.179
869.809,1.191
870.064,1.199
870.318,1.202
870.572,1.204
870.826,1.194
871.079,1.184
871.333,1.175
871.586,1.178
871.840,1.179
872.093,1.179
872.346,1.184
872.599,1.196
872.852,1.209
873.105,1.217
873.357,1.215
873.610,1.209
873.862,1.206
874.114,1.207
874.366,1.210
874.618,1.206
874.870,1.191
875.121,1.176
875.373,1.169
875.624,1.174
875.876,1.178
876.127,1.178
876.378,1.179
876.629,1.182
876.879,1.189
877.130,1.194
877.381,1.193
877.631,1.186
877.881,1.182
878.131,1.186
878.381,1.195
878.631,1.206
878.881,1.213
879.130,1.213
879.380,1.208
879.629,1.200
879.878,1.192
880.127,1.186
880.376,1.185
880.625,1.191
880.873,1.196
881.122,1.196
881.370,1.193
881.618,1.190
881.866,1.189
882.114,1.186
882.362,1.186
882.610,1.190
882.857,1.194
883.105,1.196
883.352,1.189
883.599,1.183
883.846,1.176
884.093,1.178
884.340,1.186
884.586,1.199
884.833,1.208
885.079,1.208
885.325,1.201
885.571,1.195
885.817,1.193
886.063,1.197
886.309,1.201
886.554,1.208
886.800,1.212
887.045,1.214
887.290,1.206
887.535,1.195
887.780,1.189
888.025,1.194
888.270,1.206
888.514,1.214
888.758,1.215
889.003,1.210
889.247,1.197
889.491,1.194
889.735,1.198
889.978,1.208
890.222,1.209
890.465,1.204
890.709,1.198
890.952,1.189
891.195,1.180
891.438,1.172
891.681,1.165
891.923,1.166
892.166,1.172
892.408,1.176
892.651,1.173
892.893,1.169
893.135,1.168
893.377,1.173
893.619,1.181
893.861,1.188
894.102,1.195
894.344,1.203
894.585,1.216
894.826,1.226
895.067,1.223
895.308,1.209
895.549,1.192
895.790,1.179
896.031,1.172
896.271,1.177
896.512,1.191
896.752,1.206
896.992,1.210
897.232,1.205
897.472,1.198
897.712,1.202
897.952,1.214
898.191,1.220
898.431,1.217
898.670,1.215
898.910,1.218
899.149,1.227
899.388,1.228
899.627,1.225
899.866,1.217
900.105,1.209
900.343,1.203
900.582,1.203
900.820,1.211
901.059,1.222
901.297,1.226
901.535,1.214
901.773,1.199
902.011,1.187
902.249,1.180
902.487,1.174
902.725,1.173
902.963,1.182
903.200,1.187
903.438,1.187
903.675,1.186
903.912,1.192
904.150,1.200
904.387,1.202
904.624,1.193
904.861,1.180
905.098,1.174
905.334,1.177
905.571,1.177
905.808,1.178
906.045,1.186
906.281,1.196
906.518,1.201
906.754,1.200
906.990,1.197
907.227,1.193
907.463,1.185
907.699,1.181
907.935,1.186
908.171,1.193
908.407,1.196
908.643,1.194
908.879,1.194
909.115,1.204
909.350,1.212
909.586,1.214
909.822,1.210
910.057,1.213
910.293,1.226
910.528,1.233
910.764,1.232
910.999,1.227
911.235,1.222
911.470,1.223
911.706,1.220
911.941,1.221
912.176,1.215
912.412,1.208
912.647,1.204
912.882,1.207
913.117,1.209
913.352,1.206
913.588,1.197
913.823,1.190
914.058,1.187
914.293,1.188
914.528,1.186
914.763,1.180
914.999,1.174
915.234,1.176
915.469,1.183
915.704,1.190
915.939,1.192
916.174,1.190
916.409,1.191
916.645,1.200
916.880,1.208
917.115,1.210
917.350,1.203
917.586,1.197
917.821,1.199
918.056,1.205
918.292,1.210
918.527,1.210
918.763,1.206
918.998,1.204
919.234,1.210
919.469,1.219
919.705,1.221
919.940,1.214
920.176,1.207
920.412,1.207
920.648,1.207
920.884,1.202
921.120,1.195
921.356,1.193
921.592,1.193
921.828,1.195
922.065,1.198
922.301,1.205
922.537,1.212
922.774,1.214
923.011,1.208
923.247,1.201
923.484,1.201
923.721,1.208
923.958,1.213
924.195,1.210
924.433,1.203
924.670,1.194
924.908,1.187
925.145,1.188
925.383,1.197
925.621,1.205
925.859,1.208
926.097,1.209
926.335,1.207
926.574,1.205
926.813,1.205
927.051,1.205
927.290,1.202
927.529,1.205
927.769,1.215
928.008,1.225
928.248,1.218
928.487,1.208
928.727,1.206
928.967,1.216
929.208,1.222
929.448,1.221
929.689,1.213
929.930,1.203
930.171,1.192
930.413,1.186
930.654,1.183
930.896,1.179
931.138,1.172
931.380,1.171
931.623,1.178
931.865,1.189
932.108,1.199
932.352,1.202
932.595,1.203
932.839,1.202
933.083,1.201
933.327,1.198
933.571,1.193
933.816,1.195
934.061,1.199
934.307,1.200
934.552,1.192
934.798,1.187
935.045,1.188
935.291,1.192
935.538,1.191
935.785,1.190
936.033,1.194
936.281,1.200
936.529,1.205
936.777,1.204
937.026,1.200
937.275,1.195
937.525,1.191
937.775,1.186
938.025,1.182
938.276,1.179
938.527,1.181
938.778,1.181
939.030,1.181
939.282,1.181
939.535,1.185
939.788,1.192
940.041,1.192
940.295,1.188
940.550,1.188
940.804,1.195
941.059,1.202
941.315,1.199
941.571,1.191
941.828,1.184
942.085,1.184
942.342,1.188
942.600,1.189
942.858,1.188
943.117,1.185
943.377,1.182
943.636,1.177
943.897,1.174
944.158,1.176
944.419,1.183
944.681,1.189
944.944,1.194
945.207,1.200
945.470,1.204
945.734,1.207
945.999,1.212
946.264,1.219
946.530,1.223
946.797,1.217
947.064,1.210
947.331,1.205
947.600,1.200
947.869,1.196
948.138,1.189
948.408,1.184
948.679,1.185
948.950,1.189
949.222,1.187
949.495,1.179
949.768,1.177
950.043,1.185
