Wavelength (nm),Intensity B14,,C:/Users/Brend/Desktop/LED Spectras v2/Spectrometer Data (Blue Condensed).sp,,,B14,
379.792,1.783,,2018-06-26 15:21:10,,Integration Time,111 ms,
380.000,1.777,,Analyze Light,,Number of Scans to Average,25,
380.209,1.772,,,,Smoothing,1,
380.418,1.778
380.627,1.792
380.837,1.805
381.048,1.812
381.259,1.811
381.471,1.807
381.683,1.808
381.896,1.819
382.110,1.828
382.324,1.840
382.538,1.853
382.753,1.866
382.969,1.866
383.185,1.861
383.402,1.858
383.619,1.861
383.837,1.867
384.055,1.878
384.274,1.891
384.493,1.899
384.712,1.904
384.932,1.912
385.153,1.921
385.374,1.931
385.596,1.935
385.818,1.950
386.040,1.964
386.263,1.980
386.487,1.985
386.710,1.988
386.935,1.985
387.159,1.984
387.385,1.981
387.610,1.982
387.836,1.984
388.063,1.994
388.289,2.003
388.517,2.010
388.744,2.012
388.972,2.020
389.201,2.026
389.430,2.032
389.659,2.037
389.889,2.049
390.119,2.061
390.349,2.070
390.580,2.079
390.811,2.084
391.042,2.086
391.274,2.088
391.507,2.092
391.739,2.095
391.972,2.092
392.205,2.091
392.439,2.096
392.673,2.108
392.907,2.122
393.142,2.138
393.377,2.150
393.612,2.163
393.848,2.169
394.084,2.179
394.320,2.183
394.557,2.193
394.794,2.200
395.031,2.210
395.269,2.218
395.507,2.228
395.745,2.234
395.983,2.237
396.222,2.243
396.461,2.258
396.700,2.280
396.940,2.294
397.180,2.300
397.420,2.299
397.660,2.298
397.901,2.301
398.142,2.309
398.383,2.315
398.625,2.314
398.866,2.319
399.108,2.333
399.351,2.362
399.593,2.375
399.836,2.380
400.079,2.374
400.322,2.374
400.566,2.372
400.809,2.373
401.053,2.375
401.298,2.382
401.542,2.392
401.787,2.406
402.031,2.418
402.277,2.431
402.522,2.433
402.767,2.437
403.013,2.437
403.259,2.450
403.505,2.459
403.752,2.469
403.998,2.473
404.245,2.488
404.492,2.504
404.739,2.517
404.986,2.518
405.234,2.520
405.482,2.520
405.730,2.524
405.978,2.529
406.226,2.534
406.475,2.531
406.723,2.532
406.972,2.539
407.221,2.548
407.470,2.552
407.720,2.557
407.969,2.557
408.219,2.567
408.469,2.578
408.719,2.592
408.969,2.597
409.219,2.608
409.470,2.621
409.720,2.640
409.971,2.655
410.222,2.672
410.473,2.676
410.724,2.674
410.976,2.673
411.227,2.684
411.479,2.693
411.731,2.703
411.983,2.704
412.235,2.709
412.487,2.710
412.740,2.718
412.992,2.726
413.245,2.736
413.497,2.740
413.750,2.753
414.003,2.763
414.257,2.770
414.510,2.764
414.763,2.770
415.017,2.780
415.270,2.795
415.524,2.800
415.778,2.804
416.032,2.810
416.286,2.824
416.540,2.839
416.794,2.855
417.049,2.863
417.303,2.869
417.558,2.868
417.812,2.871
418.067,2.876
418.322,2.890
418.577,2.896
418.832,2.899
419.088,2.890
419.343,2.895
419.598,2.893
419.854,2.903
420.109,2.908
420.365,2.930
420.621,2.943
420.876,2.957
421.132,2.962
421.388,2.966
421.645,2.963
421.901,2.966
422.157,2.968
422.413,2.973
422.670,2.971
422.926,2.976
423.183,2.975
423.439,2.985
423.696,2.993
423.953,3.017
424.210,3.037
424.467,3.051
424.724,3.050
424.981,3.042
425.238,3.044
425.495,3.061
425.753,3.079
426.010,3.093
426.267,3.103
426.525,3.125
426.782,3.143
427.040,3.163
427.298,3.182
427.555,3.219
427.813,3.254
428.071,3.287
428.329,3.310
428.587,3.341
428.845,3.375
429.103,3.416
429.361,3.452
429.619,3.495
429.878,3.536
430.136,3.586
430.394,3.631
430.653,3.694
430.911,3.761
431.170,3.837
431.428,3.904
431.687,3.973
431.946,4.035
432.204,4.108
432.463,4.186
432.722,4.275
432.981,4.367
433.240,4.474
433.499,4.591
433.758,4.723
434.017,4.849
434.276,4.976
434.535,5.097
434.794,5.233
435.053,5.380
435.312,5.548
435.572,5.713
435.831,5.892
436.090,6.075
436.350,6.283
436.609,6.492
436.869,6.711
437.128,6.921
437.388,7.141
437.647,7.367
437.907,7.628
438.166,7.894
438.426,8.177
438.686,8.456
438.946,8.755
439.205,9.066
439.465,9.398
439.725,9.739
439.985,10.094
440.245,10.449
440.505,10.831
440.765,11.220
441.025,11.620
441.285,12.022
441.545,12.448
441.805,12.880
442.065,13.321
442.325,13.772
442.585,14.252
442.846,14.750
443.106,15.286
443.366,15.842
443.626,16.418
443.887,16.996
444.147,17.590
444.407,18.193
444.668,18.811
444.928,19.451
445.189,20.129
445.449,20.826
445.710,21.549
445.970,22.287
446.231,23.061
446.491,23.855
446.752,24.695
447.012,25.561
447.273,26.481
447.534,27.423
447.794,28.395
448.055,29.383
448.316,30.426
448.577,31.534
448.837,32.711
449.098,33.943
449.359,35.237
449.620,36.573
449.881,37.949
450.142,39.363
450.403,40.859
450.664,42.448
450.924,44.127
451.185,45.880
451.446,47.702
451.707,49.588
451.969,51.549
452.230,53.569
452.491,55.639
452.752,57.763
453.013,59.938
453.274,62.174
453.535,64.425
453.796,66.692
454.058,68.961
454.319,71.226
454.580,73.484
454.841,75.718
455.103,77.920
455.364,80.034
455.625,82.026
455.887,83.805
456.148,85.332
456.409,86.596
456.671,87.657
456.932,88.577
457.194,89.380
457.455,90.095
457.716,90.710
457.978,91.231
458.239,91.650
458.501,91.996
458.763,92.274
459.024,92.483
459.286,92.619
459.547,92.692
459.809,92.710
460.071,92.677
460.332,92.590
460.594,92.466
460.856,92.294
461.117,92.081
461.379,91.811
461.641,91.486
461.903,91.081
462.164,90.593
462.426,90.033
462.688,89.396
462.950,88.680
463.212,87.855
463.474,86.899
463.736,85.789
463.998,84.503
464.260,83.051
464.522,81.469
464.784,79.806
465.046,78.115
465.308,76.446
465.570,74.810
465.832,73.213
466.094,71.638
466.356,70.107
466.618,68.612
466.880,67.160
467.142,65.739
467.405,64.373
467.667,63.077
467.929,61.848
468.191,60.697
468.454,59.591
468.716,58.506
468.978,57.419
469.241,56.340
469.503,55.305
469.765,54.338
470.028,53.420
470.290,52.542
470.552,51.684
470.815,50.861
471.077,50.051
471.340,49.240
471.602,48.440
471.865,47.661
472.128,46.905
472.390,46.165
472.653,45.431
472.915,44.693
473.178,43.944
473.441,43.195
473.703,42.436
473.966,41.660
474.229,40.861
474.492,40.057
474.755,39.238
475.017,38.435
475.280,37.630
475.543,36.853
475.806,36.057
476.069,35.249
476.332,34.406
476.595,33.564
476.858,32.741
477.121,31.938
477.384,31.150
477.647,30.358
477.910,29.582
478.173,28.814
478.436,28.064
478.699,27.333
478.962,26.620
479.226,25.939
479.489,25.260
479.752,24.596
480.015,23.923
480.279,23.272
480.542,22.629
480.805,21.997
481.069,21.379
481.332,20.784
481.595,20.228
481.859,19.712
482.122,19.217
482.386,18.732
482.649,18.248
482.913,17.777
483.177,17.307
483.440,16.856
483.704,16.428
483.967,16.042
484.231,15.664
484.495,15.306
484.759,14.956
485.022,14.618
485.286,14.269
485.550,13.921
485.814,13.571
486.078,13.238
486.342,12.920
486.606,12.625
486.869,12.342
487.133,12.074
487.397,11.819
487.662,11.579
487.926,11.338
488.190,11.091
488.454,10.828
488.718,10.574
488.982,10.322
489.246,10.084
489.511,9.842
489.775,9.604
490.039,9.357
490.304,9.120
490.568,8.879
490.832,8.663
491.097,8.459
491.361,8.279
491.626,8.086
491.890,7.885
492.155,7.672
492.419,7.469
492.684,7.262
492.949,7.072
493.213,6.886
493.478,6.720
493.743,6.542
494.008,6.356
494.272,6.168
494.537,6.004
494.802,5.851
495.067,5.709
495.332,5.559
495.597,5.423
495.862,5.278
496.127,5.140
496.392,4.995
496.657,4.860
496.922,4.715
497.187,4.587
497.452,4.465
497.718,4.370
497.983,4.266
498.248,4.164
498.513,4.049
498.779,3.954
499.044,3.866
499.310,3.779
499.575,3.678
499.841,3.589
500.106,3.504
500.372,3.428
500.637,3.349
500.903,3.287
501.168,3.223
501.434,3.154
501.700,3.069
501.966,2.998
502.231,2.931
502.497,2.877
502.763,2.817
503.029,2.762
503.295,2.706
503.561,2.656
503.827,2.613
504.093,2.575
504.359,2.536
504.625,2.499
504.891,2.457
505.157,2.421
505.423,2.378
505.690,2.336
505.956,2.296
506.222,2.269
506.489,2.254
506.755,2.248
507.021,2.237
507.288,2.217
507.554,2.183
507.821,2.153
508.087,2.125
508.354,2.110
508.621,2.092
508.887,2.072
509.154,2.044
509.421,2.022
509.687,1.995
509.954,1.970
510.221,1.946
510.488,1.936
510.755,1.926
511.022,1.915
511.289,1.893
511.556,1.873
511.823,1.854
512.090,1.850
512.357,1.843
512.624,1.834
512.891,1.816
513.159,1.798
513.426,1.779
513.693,1.764
513.960,1.754
514.228,1.747
514.495,1.742
514.763,1.735
515.030,1.722
515.298,1.705
515.565,1.695
515.833,1.690
516.100,1.685
516.368,1.674
516.636,1.663
516.904,1.656
517.171,1.647
517.439,1.641
517.707,1.635
517.975,1.632
518.243,1.627
518.511,1.621
518.779,1.612
519.047,1.609
519.315,1.606
519.583,1.602
519.851,1.590
520.119,1.580
520.387,1.574
520.656,1.574
520.924,1.572
521.192,1.573
521.461,1.572
521.729,1.572
521.997,1.568
522.266,1.564
522.534,1.561
522.803,1.559
523.071,1.551
523.340,1.533
523.609,1.512
523.877,1.502
524.146,1.500
524.415,1.501
524.684,1.496
524.952,1.487
525.221,1.482
525.490,1.489
525.759,1.499
526.028,1.499
526.297,1.483
526.566,1.470
526.835,1.467
527.104,1.470
527.373,1.474
527.642,1.474
527.912,1.468
528.181,1.461
528.450,1.456
528.719,1.458
528.989,1.466
529.258,1.472
529.528,1.470
529.797,1.461
530.067,1.454
530.336,1.451
530.606,1.447
530.875,1.437
531.145,1.432
531.414,1.437
531.684,1.449
531.954,1.452
532.224,1.446
532.493,1.432
532.763,1.425
533.033,1.425
533.303,1.433
533.573,1.438
533.843,1.431
534.113,1.423
534.383,1.416
534.653,1.419
534.923,1.420
535.193,1.424
535.463,1.428
535.733,1.432
536.004,1.432
536.274,1.430
536.544,1.425
536.814,1.418
537.085,1.411
537.355,1.411
537.626,1.418
537.896,1.426
538.166,1.428
538.437,1.427
538.707,1.423
538.978,1.422
539.249,1.427
539.519,1.430
539.790,1.426
540.061,1.422
540.331,1.425
540.602,1.436
540.873,1.442
541.144,1.442
541.414,1.439
541.685,1.438
541.956,1.437
542.227,1.434
542.498,1.429
542.769,1.426
543.040,1.427
543.311,1.432
543.582,1.437
543.853,1.438
544.124,1.440
544.396,1.442
544.667,1.444
544.938,1.438
545.209,1.423
545.480,1.413
545.752,1.411
546.023,1.420
546.294,1.418
546.566,1.408
546.837,1.394
547.109,1.388
547.380,1.386
547.652,1.383
547.923,1.382
548.195,1.390
548.466,1.404
548.738,1.417
549.009,1.414
549.281,1.408
549.553,1.397
549.824,1.386
550.096,1.377
550.368,1.374
550.640,1.377
550.911,1.381
551.183,1.390
551.455,1.404
551.727,1.412
551.999,1.410
552.271,1.397
552.543,1.387
552.815,1.382
553.087,1.388
553.359,1.391
553.631,1.391
553.903,1.386
554.175,1.386
554.447,1.392
554.719,1.396
554.991,1.398
555.263,1.397
555.535,1.394
555.808,1.390
556.080,1.387
556.352,1.386
556.624,1.384
556.897,1.379
557.169,1.378
557.441,1.375
557.714,1.373
557.986,1.372
558.258,1.372
558.531,1.377
558.803,1.379
559.076,1.380
559.348,1.373
559.621,1.365
559.893,1.364
560.166,1.365
560.438,1.365
560.711,1.362
560.983,1.361
561.256,1.366
561.528,1.371
561.801,1.377
562.074,1.381
562.346,1.387
562.619,1.392
562.892,1.394
563.164,1.389
563.437,1.386
563.710,1.381
563.983,1.371
564.255,1.364
564.528,1.369
564.801,1.384
565.074,1.390
565.346,1.384
565.619,1.376
565.892,1.376
566.165,1.376
566.438,1.371
566.711,1.365
566.984,1.361
567.257,1.359
567.529,1.358
567.802,1.362
568.075,1.369
568.348,1.372
568.621,1.369
568.894,1.365
569.167,1.363
569.440,1.358
569.713,1.349
569.986,1.343
570.259,1.341
570.532,1.351
570.805,1.358
571.078,1.361
571.351,1.360
571.625,1.363
571.898,1.362
572.171,1.356
572.444,1.348
572.717,1.349
572.990,1.354
573.263,1.352
573.536,1.343
573.809,1.333
574.083,1.330
574.356,1.337
574.629,1.350
574.902,1.360
575.175,1.364
575.448,1.355
575.721,1.350
575.995,1.346
576.268,1.346
576.541,1.349
576.814,1.353
577.087,1.358
577.361,1.360
577.634,1.360
577.907,1.355
578.180,1.347
578.453,1.342
578.727,1.345
579.000,1.349
579.273,1.352
579.546,1.357
579.820,1.366
580.093,1.367
580.366,1.359
580.639,1.347
580.913,1.344
581.186,1.344
581.459,1.344
581.732,1.338
582.005,1.337
582.279,1.337
582.552,1.340
582.825,1.341
583.098,1.344
583.372,1.348
583.645,1.351
583.918,1.354
584.191,1.354
584.464,1.354
584.738,1.350
585.011,1.349
585.284,1.350
585.557,1.351
585.831,1.353
586.104,1.361
586.377,1.371
586.650,1.377
586.923,1.377
587.196,1.372
587.470,1.363
587.743,1.353
588.016,1.346
588.289,1.347
588.562,1.352
588.835,1.353
589.109,1.348
589.382,1.342
589.655,1.336
589.928,1.330
590.201,1.327
590.474,1.335
590.747,1.343
591.020,1.352
591.293,1.357
591.567,1.359
591.840,1.356
592.113,1.349
592.386,1.339
592.659,1.331
592.932,1.331
593.205,1.336
593.478,1.336
593.751,1.329
594.024,1.323
594.297,1.318
594.570,1.318
594.843,1.323
595.116,1.330
595.389,1.334
595.662,1.336
595.934,1.341
596.207,1.350
596.480,1.358
596.753,1.365
597.026,1.361
597.299,1.355
597.572,1.347
597.844,1.340
598.117,1.332
598.390,1.326
598.663,1.328
598.936,1.337
599.208,1.342
599.481,1.346
599.754,1.346
600.026,1.338
600.299,1.328
600.572,1.319
600.844,1.316
601.117,1.311
601.390,1.310
601.662,1.311
601.935,1.314
602.207,1.318
602.480,1.325
602.752,1.328
603.025,1.325
603.297,1.319
603.570,1.321
603.842,1.331
604.115,1.340
604.387,1.345
604.660,1.341
604.932,1.338
605.204,1.335
605.477,1.338
605.749,1.347
606.021,1.355
606.294,1.357
606.566,1.351
606.838,1.348
607.110,1.351
607.383,1.358
607.655,1.366
607.927,1.376
608.199,1.388
608.471,1.390
608.743,1.383
609.015,1.376
609.287,1.373
609.559,1.373
609.831,1.370
610.103,1.365
610.375,1.359
610.647,1.352
610.919,1.347
611.191,1.344
611.463,1.345
611.735,1.344
612.007,1.340
612.278,1.334
612.550,1.331
612.822,1.336
613.094,1.341
613.365,1.342
613.637,1.344
613.909,1.344
614.180,1.347
614.452,1.346
614.723,1.341
614.995,1.335
615.266,1.332
615.538,1.340
615.809,1.349
616.081,1.349
616.352,1.340
616.623,1.332
616.895,1.330
617.166,1.327
617.437,1.325
617.709,1.323
617.980,1.325
618.251,1.329
618.522,1.335
618.793,1.347
619.065,1.361
619.336,1.360
619.607,1.351
619.878,1.342
620.149,1.347
620.420,1.351
620.691,1.347
620.962,1.345
621.232,1.349
621.503,1.348
621.774,1.344
622.045,1.339
622.316,1.345
622.586,1.353
622.857,1.360
623.128,1.359
623.398,1.354
623.669,1.346
623.940,1.337
624.210,1.330
624.481,1.332
624.751,1.336
625.021,1.336
625.292,1.331
625.562,1.330
625.833,1.330
626.103,1.330
626.373,1.324
626.643,1.321
626.914,1.323
627.184,1.330
627.454,1.330
627.724,1.328
627.994,1.327
628.264,1.331
628.534,1.328
628.804,1.324
629.074,1.322
629.344,1.326
629.614,1.328
629.884,1.328
630.154,1.324
630.424,1.318
630.693,1.308
630.963,1.298
631.233,1.290
631.502,1.294
631.772,1.307
632.041,1.323
632.311,1.330
632.581,1.331
632.850,1.327
633.119,1.317
633.389,1.307
633.658,1.301
633.928,1.309
634.197,1.318
634.466,1.330
634.735,1.335
635.004,1.334
635.274,1.327
635.543,1.317
635.812,1.315
636.081,1.316
636.350,1.318
636.619,1.318
636.888,1.320
637.157,1.321
637.426,1.325
637.694,1.322
637.963,1.318
638.232,1.312
638.501,1.309
638.769,1.312
639.038,1.318
639.307,1.327
639.575,1.330
639.844,1.325
640.112,1.317
640.381,1.313
640.649,1.316
640.917,1.321
641.186,1.326
641.454,1.328
641.722,1.327
641.991,1.324
642.259,1.314
642.527,1.308
642.795,1.304
643.063,1.303
643.331,1.303
643.599,1.307
643.867,1.313
644.135,1.317
644.403,1.323
644.671,1.323
644.939,1.325
645.206,1.326
645.474,1.330
645.742,1.329
646.009,1.320
646.277,1.309
646.545,1.310
646.812,1.322
647.080,1.333
647.347,1.338
647.615,1.332
647.882,1.319
648.149,1.305
648.417,1.297
648.684,1.303
648.951,1.314
649.219,1.323
649.486,1.325
649.753,1.321
650.020,1.313
650.287,1.306
650.554,1.301
650.821,1.300
651.088,1.302
651.355,1.311
651.622,1.317
651.889,1.320
652.155,1.315
652.422,1.310
652.689,1.307
652.956,1.305
653.222,1.313
653.489,1.331
653.755,1.342
654.022,1.338
654.288,1.324
654.555,1.319
654.821,1.323
655.088,1.328
655.354,1.328
655.620,1.328
655.887,1.329
656.153,1.330
656.419,1.329
656.685,1.328
656.951,1.328
657.217,1.325
657.483,1.320
657.749,1.314
658.015,1.312
658.281,1.315
658.547,1.312
658.813,1.307
659.079,1.302
659.345,1.299
659.610,1.298
659.876,1.298
660.142,1.300
660.407,1.304
660.673,1.309
660.939,1.314
661.204,1.315
661.470,1.312
661.735,1.313
662.000,1.316
662.266,1.314
662.531,1.309
662.796,1.303
663.062,1.297
663.327,1.291
663.592,1.291
663.857,1.295
664.122,1.299
664.388,1.301
664.653,1.305
664.918,1.312
665.183,1.315
665.448,1.319
665.712,1.322
665.977,1.327
666.242,1.326
666.507,1.313
666.772,1.300
667.037,1.291
667.301,1.292
667.566,1.296
667.831,1.299
668.095,1.303
668.360,1.304
668.624,1.304
668.889,1.307
669.153,1.307
669.418,1.306
669.682,1.303
669.946,1.305
670.211,1.311
670.475,1.314
670.739,1.320
671.004,1.329
671.268,1.353
671.532,1.374
671.796,1.369
672.060,1.350
672.324,1.335
672.588,1.341
672.852,1.353
673.116,1.381
673.380,1.404
673.644,1.389
673.908,1.352
674.172,1.317
674.436,1.314
674.700,1.316
674.963,1.320
675.227,1.322
675.491,1.317
675.754,1.312
676.018,1.309
676.282,1.312
676.545,1.311
676.809,1.310
677.072,1.309
677.336,1.309
677.599,1.309
677.863,1.303
678.126,1.304
678.389,1.312
678.653,1.323
678.916,1.322
679.179,1.313
679.442,1.309
679.706,1.312
679.969,1.317
680.232,1.320
680.495,1.323
680.758,1.324
681.021,1.319
681.284,1.312
681.547,1.309
681.810,1.315
682.073,1.324
682.336,1.330
682.599,1.329
682.862,1.326
683.125,1.324
683.388,1.325
683.651,1.326
683.913,1.325
684.176,1.319
684.439,1.309
684.702,1.299
684.964,1.296
685.227,1.298
685.490,1.305
685.752,1.311
686.015,1.313
686.277,1.309
686.540,1.302
686.802,1.297
687.065,1.297
687.327,1.298
687.590,1.298
687.852,1.294
688.115,1.286
688.377,1.284
688.639,1.288
688.902,1.296
689.164,1.302
689.426,1.309
689.689,1.315
689.951,1.315
690.213,1.311
690.475,1.308
690.737,1.306
691.000,1.302
691.262,1.299
691.524,1.301
691.786,1.310
692.048,1.319
692.310,1.318
692.572,1.307
692.834,1.297
693.096,1.296
693.358,1.305
693.620,1.316
693.882,1.322
694.144,1.323
694.406,1.319
694.668,1.314
694.930,1.304
695.192,1.299
695.453,1.301
695.715,1.306
695.977,1.304
696.239,1.298
696.501,1.296
696.762,1.300
697.024,1.302
697.286,1.298
697.548,1.295
697.809,1.296
698.071,1.298
698.333,1.298
698.594,1.296
698.856,1.298
699.118,1.302
699.379,1.307
699.641,1.313
699.902,1.315
700.164,1.314
700.426,1.310
700.687,1.308
700.949,1.308
701.210,1.307
701.472,1.304
701.733,1.299
701.995,1.295
702.256,1.293
702.518,1.294
702.779,1.295
703.041,1.303
703.302,1.312
703.563,1.313
703.825,1.306
704.086,1.301
704.348,1.300
704.609,1.303
704.871,1.308
705.132,1.316
705.393,1.315
705.655,1.311
705.916,1.309
706.177,1.310
706.439,1.312
706.700,1.310
706.961,1.310
707.223,1.307
707.484,1.295
707.745,1.280
708.007,1.268
708.268,1.258
708.529,1.247
708.790,1.233
709.052,1.226
709.313,1.224
709.574,1.229
709.835,1.231
710.097,1.225
710.358,1.211
710.619,1.198
710.881,1.191
711.142,1.186
711.403,1.182
711.664,1.179
711.926,1.176
712.187,1.182
712.448,1.188
712.709,1.199
712.970,1.207
713.232,1.214
713.493,1.220
713.754,1.225
714.015,1.228
714.277,1.229
714.538,1.231
714.799,1.237
715.060,1.241
715.322,1.240
715.583,1.232
715.844,1.223
716.105,1.213
716.367,1.206
716.628,1.205
716.889,1.203
717.150,1.198
717.411,1.188
717.673,1.189
717.934,1.196
718.195,1.205
718.457,1.202
718.718,1.192
718.979,1.184
719.240,1.186
719.502,1.195
719.763,1.206
720.024,1.211
720.286,1.211
720.547,1.201
720.808,1.191
721.069,1.186
721.331,1.194
721.592,1.204
721.853,1.213
722.115,1.215
722.376,1.215
722.638,1.212
722.899,1.209
723.160,1.202
723.422,1.195
723.683,1.191
723.944,1.193
724.206,1.195
724.467,1.193
724.729,1.193
724.990,1.200
725.252,1.206
725.513,1.201
725.775,1.187
726.036,1.175
726.298,1.177
726.559,1.188
726.821,1.196
727.082,1.197
727.344,1.193
727.605,1.190
727.867,1.188
728.128,1.188
728.390,1.186
728.652,1.190
728.913,1.199
729.175,1.207
729.436,1.214
729.698,1.218
729.960,1.218
730.221,1.211
730.483,1.196
730.745,1.189
731.007,1.187
731.268,1.191
731.530,1.193
731.792,1.193
732.054,1.193
732.315,1.193
732.577,1.195
732.839,1.191
733.101,1.186
733.363,1.181
733.625,1.182
733.887,1.186
734.149,1.188
734.411,1.193
734.673,1.197
734.935,1.200
735.197,1.200
735.459,1.203
735.721,1.206
735.983,1.203
736.245,1.191
736.507,1.188
736.769,1.195
737.031,1.201
737.293,1.197
737.555,1.188
737.818,1.181
738.080,1.177
738.342,1.176
738.604,1.176
738.867,1.176
739.129,1.173
739.391,1.172
739.654,1.172
739.916,1.176
740.178,1.181
740.441,1.190
740.703,1.194
740.966,1.190
741.228,1.183
741.491,1.182
741.753,1.186
742.016,1.186
742.278,1.185
742.541,1.186
742.804,1.190
743.066,1.200
743.329,1.201
743.592,1.200
743.854,1.200
744.117,1.206
744.380,1.212
744.643,1.205
744.905,1.196
745.168,1.191
745.431,1.190
745.694,1.186
745.957,1.183
746.220,1.178
746.483,1.176
746.746,1.175
747.009,1.184
747.272,1.197
747.535,1.209
747.798,1.211
748.061,1.201
748.324,1.187
748.588,1.179
748.851,1.179
749.114,1.182
749.377,1.186
749.641,1.184
749.904,1.183
750.167,1.183
750.431,1.187
750.694,1.197
750.958,1.204
751.221,1.203
751.485,1.192
751.748,1.183
752.012,1.184
752.275,1.194
752.539,1.197
752.803,1.194
753.066,1.185
753.330,1.182
753.594,1.184
753.857,1.188
754.121,1.192
754.385,1.193
754.649,1.191
754.913,1.190
755.177,1.191
755.441,1.192
755.705,1.189
755.969,1.185
756.233,1.187
756.497,1.191
756.761,1.191
757.025,1.187
757.289,1.184
757.553,1.185
757.818,1.187
758.082,1.190
758.346,1.192
758.610,1.194
758.875,1.196
759.139,1.196
759.404,1.193
759.668,1.186
759.932,1.184
760.197,1.190
760.462,1.198
760.726,1.199
760.991,1.198
761.255,1.198
761.520,1.200
761.785,1.196
762.049,1.187
762.314,1.180
762.579,1.179
762.844,1.187
763.109,1.196
763.374,1.200
763.639,1.196
763.903,1.189
764.168,1.181
764.433,1.180
764.699,1.186
764.964,1.191
765.229,1.188
765.494,1.178
765.759,1.173
766.024,1.173
766.290,1.180
766.555,1.187
766.820,1.193
767.086,1.197
767.351,1.199
767.616,1.200
767.882,1.200
768.147,1.200
768.413,1.198
768.678,1.194
768.944,1.193
769.209,1.193
769.475,1.195
769.741,1.197
770.006,1.201
770.272,1.206
770.538,1.206
770.804,1.205
771.070,1.204
771.335,1.209
771.601,1.214
771.867,1.218
772.133,1.215
772.399,1.210
772.665,1.202
772.931,1.200
773.197,1.203
773.464,1.212
773.730,1.219
773.996,1.218
774.262,1.216
774.528,1.213
774.795,1.212
775.061,1.213
775.327,1.209
775.594,1.202
775.860,1.196
776.126,1.192
776.393,1.188
776.659,1.185
776.926,1.180
777.193,1.181
777.459,1.184
777.726,1.186
777.992,1.186
778.259,1.184
778.526,1.186
778.793,1.189
779.059,1.194
779.326,1.197
779.593,1.200
779.860,1.203
780.127,1.204
780.394,1.203
780.661,1.201
780.928,1.197
781.195,1.189
781.462,1.182
781.729,1.178
781.996,1.178
782.263,1.181
782.530,1.192
782.797,1.200
783.064,1.200
783.332,1.191
783.599,1.181
783.866,1.179
784.134,1.180
784.401,1.185
784.668,1.188
784.936,1.190
785.203,1.188
785.470,1.183
785.738,1.180
786.005,1.183
786.273,1.185
786.541,1.183
786.808,1.182
787.076,1.183
787.343,1.189
787.611,1.196
787.879,1.204
788.146,1.203
788.414,1.202
788.682,1.194
788.950,1.192
789.217,1.193
789.485,1.200
789.753,1.205
790.021,1.201
790.289,1.188
790.557,1.171
790.825,1.163
791.093,1.172
791.361,1.188
791.629,1.202
791.897,1.205
792.165,1.201
792.433,1.195
792.701,1.183
792.969,1.172
793.237,1.166
793.505,1.172
793.773,1.181
794.042,1.183
794.310,1.182
794.578,1.184
794.846,1.187
795.115,1.187
795.383,1.187
795.651,1.191
795.920,1.194
796.188,1.193
796.456,1.195
796.725,1.199
796.993,1.207
797.261,1.210
797.530,1.206
797.798,1.200
798.067,1.199
798.335,1.204
798.604,1.204
798.872,1.194
799.141,1.183
799.409,1.178
799.678,1.181
799.946,1.183
800.215,1.184
800.483,1.183
800.752,1.187
801.020,1.192
801.289,1.194
801.558,1.188
801.826,1.185
802.095,1.180
802.363,1.183
802.632,1.185
802.901,1.192
803.169,1.193
803.438,1.190
803.707,1.183
803.976,1.175
804.244,1.173
804.513,1.174
804.782,1.175
805.050,1.176
805.319,1.180
805.588,1.187
805.857,1.194
806.125,1.196
806.394,1.194
806.663,1.186
806.931,1.179
807.200,1.175
807.469,1.176
807.738,1.178
808.006,1.181
808.275,1.188
808.544,1.197
808.813,1.202
809.082,1.200
809.350,1.193
809.619,1.186
809.888,1.180
810.157,1.176
810.425,1.173
810.694,1.177
810.963,1.183
811.232,1.183
811.500,1.177
811.769,1.171
812.038,1.173
812.306,1.180
812.575,1.188
812.844,1.191
813.113,1.193
813.381,1.188
813.650,1.188
813.919,1.191
814.187,1.198
814.456,1.201
814.725,1.200
814.993,1.199
815.262,1.200
815.531,1.198
815.799,1.194
816.068,1.186
816.336,1.178
816.605,1.178
816.873,1.184
817.142,1.195
817.411,1.200
817.679,1.202
817.948,1.209
818.216,1.219
818.485,1.242
818.753,1.254
819.021,1.241
819.290,1.207
819.558,1.185
819.827,1.186
820.095,1.194
820.363,1.196
820.632,1.193
820.900,1.190
821.168,1.192
821.437,1.195
821.705,1.197
821.973,1.198
822.241,1.200
822.509,1.200
822.777,1.194
823.046,1.191
823.314,1.195
823.582,1.202
823.850,1.205
824.118,1.206
824.386,1.201
824.654,1.187
824.922,1.173
825.190,1.166
825.457,1.177
825.725,1.188
825.993,1.193
826.261,1.192
826.529,1.193
826.796,1.194
827.064,1.190
827.332,1.184
827.599,1.187
827.867,1.198
828.134,1.203
828.402,1.199
828.669,1.190
828.937,1.185
829.204,1.192
829.471,1.206
829.739,1.216
830.006,1.215
830.273,1.208
830.540,1.199
830.807,1.187
831.075,1.184
831.342,1.189
831.609,1.193
831.876,1.196
832.142,1.198
832.409,1.202
832.676,1.197
832.943,1.184
833.210,1.173
833.476,1.172
833.743,1.177
834.010,1.181
834.276,1.178
834.543,1.174
834.809,1.177
835.076,1.183
835.342,1.187
835.608,1.194
835.874,1.200
836.141,1.198
836.407,1.190
836.673,1.184
836.939,1.182
837.205,1.183
837.471,1.184
837.737,1.189
838.002,1.189
838.268,1.187
838.534,1.183
838.799,1.182
839.065,1.184
839.330,1.182
839.596,1.181
839.861,1.186
840.127,1.197
840.392,1.205
840.657,1.208
840.922,1.214
841.187,1.220
841.452,1.220
841.717,1.217
841.982,1.211
842.247,1.204
842.511,1.195
842.776,1.194
843.041,1.194
843.305,1.188
843.570,1.183
843.834,1.184
844.098,1.186
844.362,1.186
844.627,1.181
844.891,1.182
845.155,1.186
845.419,1.192
845.682,1.195
845.946,1.197
846.210,1.199
846.474,1.199
846.737,1.199
847.001,1.194
847.264,1.187
847.527,1.183
847.790,1.183
848.054,1.183
848.317,1.177
848.580,1.170
848.843,1.169
849.105,1.178
849.368,1.190
849.631,1.198
849.893,1.204
850.156,1.213
850.418,1.218
850.680,1.211
850.943,1.200
851.205,1.194
851.467,1.197
851.729,1.197
851.991,1.199
852.252,1.202
852.514,1.206
852.776,1.208
853.037,1.209
853.298,1.207
853.560,1.201
853.821,1.190
854.082,1.180
854.343,1.181
854.604,1.192
854.865,1.211
855.126,1.222
855.386,1.229
855.647,1.231
855.907,1.227
856.168,1.215
856.428,1.202
856.688,1.194
856.948,1.185
857.208,1.180
857.468,1.182
857.727,1.187
857.987,1.192
858.247,1.194
858.506,1.200
858.765,1.200
859.024,1.194
859.284,1.186
859.543,1.183
859.801,1.181
860.060,1.180
860.319,1.185
860.577,1.193
860.836,1.202
861.094,1.207
861.352,1.211
861.611,1.207
861.869,1.198
862.127,1.190
862.384,1.194
862.642,1.200
862.900,1.208
863.157,1.209
863.414,1.204
863.672,1.193
863.929,1.181
864.186,1.176
864.443,1.179
864.699,1.186
864.956,1.191
865.212,1.186
865.469,1.184
865.725,1.190
865.981,1.203
866.237,1.210
866.493,1.208
866.749,1.199
867.005,1.194
867.260,1.189
867.516,1.189
867.771,1.187
868.026,1.188
868.282,1.194
868.536,1.198
868.791,1.192
869.046,1.181
869.301,1.175
869.555,1.176
869.809,1.185
870.064,1.187
870.318,1.194
870.572,1.196
870.826,1.192
871.079,1.185
871.333,1.178
871.586,1.182
871.840,1.185
872.093,1.188
872.346,1.197
872.599,1.210
872.852,1.221
873.105,1.222
873.357,1.214
873.610,1.205
873.862,1.204
874.114,1.207
874.366,1.210
874.618,1.205
874.870,1.193
875.121,1.184
875.373,1.183
875.624,1.190
875.876,1.194
876.127,1.193
876.378,1.190
876.629,1.189
876.879,1.194
877.130,1.197
877.381,1.195
877.631,1.185
877.881,1.177
878.131,1.178
878.381,1.191
878.631,1.210
878.881,1.220
879.130,1.219
879.380,1.210
879.629,1.204
879.878,1.194
880.127,1.187
880.376,1.185
880.625,1.194
880.873,1.205
881.122,1.213
881.370,1.213
881.618,1.203
881.866,1.192
882.114,1.184
882.362,1.183
882.610,1.187
882.857,1.192
883.105,1.194
883.352,1.187
883.599,1.178
883.846,1.174
884.093,1.176
884.340,1.181
884.586,1.188
884.833,1.196
885.079,1.199
885.325,1.198
885.571,1.197
885.817,1.198
886.063,1.203
886.309,1.205
886.554,1.210
886.800,1.212
887.045,1.213
887.290,1.205
887.535,1.195
887.780,1.191
888.025,1.197
888.270,1.209
888.514,1.216
888.758,1.215
889.003,1.206
889.247,1.195
889.491,1.195
889.735,1.201
889.978,1.210
890.222,1.208
890.465,1.202
890.709,1.195
890.952,1.186
891.195,1.181
891.438,1.180
891.681,1.179
891.923,1.182
892.166,1.187
892.408,1.192
892.651,1.188
892.893,1.180
893.135,1.176
893.377,1.178
893.619,1.182
893.861,1.186
894.102,1.190
894.344,1.201
894.585,1.217
894.826,1.228
895.067,1.224
895.308,1.212
895.549,1.200
895.790,1.190
896.031,1.182
896.271,1.184
896.512,1.193
896.752,1.204
896.992,1.205
897.232,1.200
897.472,1.192
897.712,1.198
897.952,1.211
898.191,1.219
898.431,1.217
898.670,1.214
898.910,1.213
899.149,1.220
899.388,1.224
899.627,1.225
899.866,1.219
900.105,1.207
900.343,1.200
900.582,1.201
900.820,1.209
901.059,1.216
901.297,1.217
901.535,1.206
901.773,1.192
902.011,1.181
902.249,1.174
902.487,1.176
902.725,1.181
902.963,1.191
903.200,1.194
903.438,1.193
903.675,1.190
903.912,1.194
904.150,1.202
904.387,1.205
904.624,1.198
904.861,1.188
905.098,1.182
905.334,1.185
905.571,1.184
905.808,1.185
906.045,1.190
906.281,1.198
906.518,1.203
906.754,1.208
906.990,1.211
907.227,1.210
907.463,1.201
907.699,1.194
907.935,1.194
908.171,1.199
908.407,1.202
908.643,1.203
908.879,1.203
909.115,1.207
909.350,1.210
909.586,1.211
909.822,1.209
910.057,1.215
910.293,1.228
910.528,1.233
910.764,1.228
910.999,1.223
911.235,1.222
911.470,1.226
911.706,1.223
911.941,1.219
912.176,1.212
912.412,1.208
912.647,1.209
912.882,1.213
913.117,1.214
913.352,1.210
913.588,1.202
913.823,1.196
914.058,1.191
914.293,1.187
914.528,1.183
914.763,1.180
914.999,1.179
915.234,1.181
915.469,1.184
915.704,1.186
915.939,1.186
916.174,1.183
916.409,1.182
916.645,1.189
916.880,1.197
917.115,1.203
917.350,1.199
917.586,1.195
917.821,1.194
918.056,1.200
918.292,1.206
918.527,1.206
918.763,1.197
918.998,1.188
919.234,1.192
919.469,1.205
919.705,1.210
919.940,1.207
920.176,1.201
920.412,1.206
920.648,1.208
920.884,1.207
921.120,1.201
921.356,1.196
921.592,1.192
921.828,1.192
922.065,1.196
922.301,1.205
922.537,1.214
922.774,1.217
923.011,1.210
923.247,1.197
923.484,1.193
923.721,1.199
923.958,1.207
924.195,1.208
924.433,1.204
924.670,1.196
924.908,1.187
925.145,1.186
925.383,1.192
925.621,1.197
925.859,1.198
926.097,1.198
926.335,1.199
926.574,1.203
926.813,1.204
927.051,1.202
927.290,1.197
927.529,1.202
927.769,1.218
928.008,1.227
928.248,1.217
928.487,1.205
928.727,1.200
928.967,1.210
929.208,1.214
929.448,1.214
929.689,1.206
929.930,1.195
930.171,1.187
930.413,1.186
930.654,1.187
930.896,1.183
931.138,1.175
931.380,1.170
931.623,1.175
931.865,1.184
932.108,1.194
932.352,1.200
932.595,1.201
932.839,1.203
933.083,1.203
933.327,1.201
933.571,1.195
933.816,1.194
934.061,1.197
934.307,1.199
934.552,1.194
934.798,1.188
935.045,1.190
935.291,1.195
935.538,1.200
935.785,1.202
936.033,1.207
936.281,1.209
936.529,1.209
936.777,1.205
937.026,1.199
937.275,1.193
937.525,1.185
937.775,1.180
938.025,1.176
938.276,1.177
938.527,1.179
938.778,1.179
939.030,1.180
939.282,1.181
939.535,1.188
939.788,1.196
940.041,1.196
940.295,1.195
940.550,1.196
940.804,1.203
941.059,1.208
941.315,1.203
941.571,1.193
941.828,1.185
942.085,1.184
942.342,1.185
942.600,1.183
942.858,1.181
943.117,1.177
943.377,1.175
943.636,1.173
943.897,1.175
944.158,1.181
944.419,1.187
944.681,1.194
944.944,1.198
945.207,1.204
945.470,1.209
945.734,1.213
945.999,1.220
946.264,1.227
946.530,1.228
946.797,1.220
947.064,1.210
947.331,1.203
947.600,1.198
947.869,1.195
948.138,1.190
948.408,1.186
948.679,1.186
948.950,1.189
949.222,1.190
949.495,1.184
949.768,1.183
950.043,1.192
