Wavelength (nm),Intensity B16,,C:/Users/Brend/Desktop/LED Spectras v2/Spectrometer Data (Blue Condensed).sp,,,B16,
379.792,1.911,,2018-06-26 15:21:29,,Integration Time,136 ms,
380.000,1.912,,Analyze Light,,Number of Scans to Average,25,
380.209,1.909,,,,Smoothing,1,
380.418,1.916
380.627,1.930
380.837,1.946
381.048,1.954
381.259,1.956
381.471,1.957
381.683,1.961
381.896,1.972
382.110,1.978
382.324,1.990
382.538,2.003
382.753,2.019
382.969,2.014
383.185,2.006
383.402,2.004
383.619,2.021
383.837,2.042
384.055,2.064
384.274,2.078
384.493,2.084
384.712,2.085
384.932,2.092
385.153,2.101
385.374,2.115
385.596,2.126
385.818,2.142
386.040,2.161
386.263,2.179
386.487,2.190
386.710,2.192
386.935,2.184
387.159,2.178
387.385,2.170
387.610,2.173
387.836,2.181
388.063,2.198
388.289,2.209
388.517,2.215
388.744,2.212
388.972,2.223
389.201,2.233
389.430,2.245
389.659,2.253
389.889,2.267
390.119,2.279
390.349,2.288
390.580,2.299
390.811,2.310
391.042,2.315
391.274,2.319
391.507,2.321
391.739,2.321
391.972,2.317
392.205,2.324
392.439,2.338
392.673,2.352
392.907,2.361
393.142,2.377
393.377,2.399
393.612,2.422
393.848,2.431
394.084,2.439
394.320,2.443
394.557,2.458
394.794,2.466
395.031,2.478
395.269,2.489
395.507,2.506
395.745,2.515
395.983,2.523
396.222,2.535
396.461,2.561
396.700,2.583
396.940,2.599
397.180,2.602
397.420,2.597
397.660,2.591
397.901,2.586
398.142,2.589
398.383,2.594
398.625,2.600
398.866,2.615
399.108,2.637
399.351,2.675
399.593,2.692
399.836,2.696
400.079,2.683
400.322,2.678
400.566,2.675
400.809,2.678
401.053,2.682
401.298,2.691
401.542,2.707
401.787,2.729
402.031,2.744
402.277,2.758
402.522,2.761
402.767,2.771
403.013,2.772
403.259,2.780
403.505,2.781
403.752,2.786
403.998,2.790
404.245,2.808
404.492,2.821
404.739,2.831
404.986,2.833
405.234,2.844
405.482,2.852
405.730,2.859
405.978,2.866
406.226,2.873
406.475,2.875
406.723,2.880
406.972,2.893
407.221,2.917
407.470,2.930
407.720,2.942
407.969,2.937
408.219,2.949
408.469,2.959
408.719,2.977
408.969,2.985
409.219,2.997
409.470,3.005
409.720,3.020
409.971,3.033
410.222,3.056
410.473,3.064
410.724,3.068
410.976,3.071
411.227,3.092
411.479,3.107
411.731,3.126
411.983,3.130
412.235,3.143
412.487,3.144
412.740,3.154
412.992,3.160
413.245,3.175
413.497,3.183
413.750,3.196
414.003,3.197
414.257,3.196
414.510,3.190
414.763,3.201
415.017,3.215
415.270,3.231
415.524,3.233
415.778,3.237
416.032,3.237
416.286,3.250
416.540,3.259
416.794,3.275
417.049,3.278
417.303,3.283
417.558,3.286
417.812,3.294
418.067,3.303
418.322,3.312
418.577,3.309
418.832,3.303
419.088,3.286
419.343,3.288
419.598,3.285
419.854,3.294
420.109,3.292
420.365,3.306
420.621,3.311
420.876,3.321
421.132,3.319
421.388,3.321
421.645,3.317
421.901,3.322
422.157,3.324
422.413,3.333
422.670,3.333
422.926,3.336
423.183,3.327
423.439,3.336
423.696,3.350
423.953,3.386
424.210,3.407
424.467,3.417
424.724,3.409
424.981,3.403
425.238,3.407
425.495,3.429
425.753,3.446
426.010,3.464
426.267,3.474
426.525,3.502
426.782,3.529
427.040,3.565
427.298,3.604
427.555,3.657
427.813,3.699
428.071,3.741
428.329,3.779
428.587,3.829
428.845,3.879
429.103,3.934
429.361,3.986
429.619,4.047
429.878,4.113
430.136,4.195
430.394,4.271
430.653,4.362
430.911,4.457
431.170,4.572
431.428,4.673
431.687,4.779
431.946,4.877
432.204,4.990
432.463,5.108
432.722,5.238
432.981,5.368
433.240,5.517
433.499,5.675
433.758,5.851
434.017,6.012
434.276,6.184
434.535,6.353
434.794,6.543
435.053,6.733
435.312,6.940
435.572,7.149
435.831,7.379
436.090,7.627
436.350,7.900
436.609,8.177
436.869,8.457
437.128,8.735
437.388,9.020
437.647,9.321
437.907,9.647
438.166,9.984
438.426,10.329
438.686,10.677
438.946,11.049
439.205,11.432
439.465,11.844
439.725,12.276
439.985,12.737
440.245,13.201
440.505,13.680
440.765,14.163
441.025,14.664
441.285,15.187
441.545,15.731
441.805,16.282
442.065,16.851
442.325,17.442
442.585,18.082
442.846,18.748
443.106,19.470
443.366,20.220
443.626,20.996
443.887,21.798
444.147,22.640
444.407,23.518
444.668,24.437
444.928,25.387
445.189,26.393
445.449,27.436
445.710,28.538
445.970,29.677
446.231,30.866
446.491,32.120
446.752,33.445
447.012,34.832
447.273,36.260
447.534,37.723
447.794,39.225
448.055,40.790
448.316,42.442
448.577,44.185
448.837,46.005
449.098,47.881
449.359,49.819
449.620,51.781
449.881,53.775
450.142,55.797
450.403,57.883
450.664,60.017
450.924,62.199
451.185,64.416
451.446,66.673
451.707,68.932
451.969,71.189
452.230,73.410
452.491,75.590
452.752,77.723
453.013,79.805
453.274,81.777
453.535,83.546
453.796,85.045
454.058,86.284
454.319,87.316
454.580,88.185
454.841,88.953
455.103,89.617
455.364,90.207
455.625,90.706
455.887,91.134
456.148,91.482
456.409,91.752
456.671,91.949
456.932,92.081
457.194,92.159
457.455,92.188
457.716,92.168
457.978,92.101
458.239,91.991
458.501,91.843
458.763,91.653
459.024,91.413
459.286,91.112
459.547,90.731
459.809,90.268
460.071,89.721
460.332,89.096
460.594,88.397
460.856,87.616
461.117,86.727
461.379,85.692
461.641,84.470
461.903,83.054
462.164,81.467
462.426,79.768
462.688,78.015
462.950,76.256
463.212,74.509
463.474,72.791
463.736,71.085
463.998,69.437
464.260,67.851
464.522,66.353
464.784,64.917
465.046,63.542
465.308,62.239
465.570,60.982
465.832,59.775
466.094,58.588
466.356,57.451
466.618,56.357
466.880,55.314
467.142,54.324
467.405,53.393
467.667,52.516
467.929,51.660
468.191,50.817
468.454,49.974
468.716,49.138
468.978,48.294
469.241,47.446
469.503,46.634
469.765,45.864
470.028,45.130
470.290,44.393
470.552,43.665
470.815,42.951
471.077,42.236
471.340,41.519
471.602,40.790
471.865,40.075
472.128,39.341
472.390,38.613
472.653,37.880
472.915,37.168
473.178,36.437
473.441,35.692
473.703,34.914
473.966,34.134
474.229,33.339
474.492,32.556
474.755,31.762
475.017,31.004
475.280,30.268
475.543,29.568
475.806,28.849
476.069,28.109
476.332,27.362
476.595,26.637
476.858,25.936
477.121,25.243
477.384,24.564
477.647,23.908
477.910,23.278
478.173,22.662
478.436,22.048
478.699,21.460
478.962,20.897
479.226,20.374
479.489,19.865
479.752,19.368
480.015,18.865
480.279,18.373
480.542,17.885
480.805,17.406
481.069,16.937
481.332,16.499
481.595,16.091
481.859,15.714
482.122,15.344
482.386,14.986
482.649,14.633
482.913,14.284
483.177,13.932
483.440,13.590
483.704,13.266
483.967,12.975
484.231,12.688
484.495,12.422
484.759,12.154
485.022,11.893
485.286,11.622
485.550,11.359
485.814,11.076
486.078,10.799
486.342,10.526
486.606,10.295
486.869,10.072
487.133,9.860
487.397,9.640
487.662,9.419
487.926,9.192
488.190,8.971
488.454,8.748
488.718,8.542
488.982,8.328
489.246,8.129
489.511,7.904
489.775,7.689
490.039,7.471
490.304,7.280
490.568,7.085
490.832,6.910
491.097,6.738
491.361,6.579
491.626,6.403
491.890,6.228
492.155,6.054
492.419,5.905
492.684,5.752
492.949,5.598
493.213,5.437
493.478,5.302
493.743,5.160
494.008,5.016
494.272,4.865
494.537,4.734
494.802,4.609
495.067,4.495
495.332,4.383
495.597,4.285
495.862,4.173
496.127,4.071
496.392,3.964
496.657,3.865
496.922,3.762
497.187,3.671
497.452,3.587
497.718,3.522
497.983,3.451
498.248,3.385
498.513,3.307
498.779,3.252
499.044,3.200
499.310,3.139
499.575,3.056
499.841,2.983
500.106,2.923
500.372,2.872
500.637,2.819
500.903,2.783
501.168,2.741
501.434,2.695
501.700,2.634
501.966,2.589
502.231,2.543
502.497,2.501
502.763,2.450
503.029,2.405
503.295,2.369
503.561,2.340
503.827,2.321
504.093,2.299
504.359,2.274
504.625,2.248
504.891,2.218
505.157,2.196
505.423,2.165
505.690,2.132
505.956,2.100
506.222,2.081
506.489,2.077
506.755,2.078
507.021,2.072
507.288,2.055
507.554,2.028
507.821,2.005
508.087,1.985
508.354,1.979
508.621,1.965
508.887,1.946
509.154,1.921
509.421,1.902
509.687,1.883
509.954,1.862
510.221,1.843
510.488,1.836
510.755,1.835
511.022,1.837
511.289,1.822
511.556,1.807
511.823,1.792
512.090,1.792
512.357,1.784
512.624,1.775
512.891,1.761
513.159,1.750
513.426,1.736
513.693,1.725
513.960,1.719
514.228,1.715
514.495,1.710
514.763,1.705
515.030,1.695
515.298,1.681
515.565,1.673
515.833,1.671
516.100,1.669
516.368,1.663
516.636,1.653
516.904,1.651
517.171,1.646
517.439,1.642
517.707,1.632
517.975,1.629
518.243,1.629
518.511,1.625
518.779,1.611
519.047,1.602
519.315,1.600
519.583,1.597
519.851,1.581
520.119,1.571
520.387,1.568
520.656,1.570
520.924,1.572
521.192,1.574
521.461,1.576
521.729,1.574
521.997,1.570
522.266,1.562
522.534,1.557
522.803,1.560
523.071,1.560
523.340,1.546
523.609,1.525
523.877,1.515
524.146,1.516
524.415,1.520
524.684,1.526
524.952,1.524
525.221,1.521
525.490,1.522
525.759,1.527
526.028,1.529
526.297,1.515
526.566,1.502
526.835,1.493
527.104,1.495
527.373,1.497
527.642,1.493
527.912,1.480
528.181,1.466
528.450,1.463
528.719,1.471
528.989,1.488
529.258,1.502
529.528,1.504
529.797,1.493
530.067,1.486
530.336,1.482
530.606,1.476
530.875,1.460
531.145,1.450
531.414,1.452
531.684,1.462
531.954,1.470
532.224,1.468
532.493,1.455
532.763,1.443
533.033,1.440
533.303,1.445
533.573,1.453
533.843,1.451
534.113,1.448
534.383,1.440
534.653,1.441
534.923,1.444
535.193,1.453
535.463,1.463
535.733,1.474
536.004,1.480
536.274,1.480
536.544,1.467
536.814,1.450
537.085,1.436
537.355,1.438
537.626,1.450
537.896,1.460
538.166,1.463
538.437,1.458
538.707,1.454
538.978,1.458
539.249,1.469
539.519,1.476
539.790,1.465
540.061,1.454
540.331,1.452
540.602,1.461
540.873,1.466
541.144,1.468
541.414,1.468
541.685,1.469
541.956,1.468
542.227,1.468
542.498,1.464
542.769,1.460
543.040,1.463
543.311,1.475
543.582,1.489
543.853,1.493
544.124,1.492
544.396,1.491
544.667,1.493
544.938,1.491
545.209,1.471
545.480,1.456
545.752,1.446
546.023,1.452
546.294,1.450
546.566,1.442
546.837,1.429
547.109,1.422
547.380,1.418
547.652,1.416
547.923,1.415
548.195,1.420
548.466,1.430
548.738,1.440
549.009,1.437
549.281,1.427
549.553,1.414
549.824,1.402
550.096,1.394
550.368,1.393
550.640,1.398
550.911,1.406
551.183,1.419
551.455,1.439
551.727,1.454
551.999,1.451
552.271,1.435
552.543,1.420
552.815,1.411
553.087,1.418
553.359,1.428
553.631,1.436
553.903,1.435
554.175,1.436
554.447,1.440
554.719,1.444
554.991,1.443
555.263,1.439
555.535,1.433
555.808,1.426
556.080,1.415
556.352,1.407
556.624,1.402
556.897,1.399
557.169,1.399
557.441,1.400
557.714,1.396
557.986,1.395
558.258,1.394
558.531,1.404
558.803,1.407
559.076,1.408
559.348,1.400
559.621,1.394
559.893,1.394
560.166,1.395
560.438,1.394
560.711,1.385
560.983,1.379
561.256,1.383
561.528,1.395
561.801,1.410
562.074,1.421
562.346,1.430
562.619,1.435
562.892,1.436
563.164,1.431
563.437,1.430
563.710,1.428
563.983,1.421
564.255,1.410
564.528,1.411
564.801,1.419
565.074,1.426
565.346,1.419
565.619,1.410
565.892,1.410
566.165,1.412
566.438,1.406
566.711,1.394
566.984,1.388
567.257,1.387
567.529,1.391
567.802,1.400
568.075,1.410
568.348,1.411
568.621,1.408
568.894,1.405
569.167,1.404
569.440,1.398
569.713,1.388
569.986,1.382
570.259,1.378
570.532,1.384
570.805,1.390
571.078,1.396
571.351,1.402
571.625,1.407
571.898,1.404
572.171,1.393
572.444,1.383
572.717,1.387
572.990,1.396
573.263,1.398
573.536,1.390
573.809,1.377
574.083,1.372
574.356,1.375
574.629,1.388
574.902,1.396
575.175,1.398
575.448,1.390
575.721,1.382
575.995,1.379
576.268,1.382
576.541,1.391
576.814,1.398
577.087,1.402
577.361,1.401
577.634,1.398
577.907,1.391
578.180,1.380
578.453,1.374
578.727,1.378
579.000,1.385
579.273,1.391
579.546,1.399
579.820,1.408
580.093,1.411
580.366,1.403
580.639,1.390
580.913,1.383
581.186,1.382
581.459,1.383
581.732,1.378
582.005,1.371
582.279,1.364
582.552,1.362
582.825,1.363
583.098,1.366
583.372,1.369
583.645,1.374
583.918,1.379
584.191,1.382
584.464,1.384
584.738,1.385
585.011,1.384
585.284,1.377
585.557,1.373
585.831,1.374
586.104,1.386
586.377,1.405
586.650,1.415
586.923,1.415
587.196,1.405
587.470,1.392
587.743,1.382
588.016,1.377
588.289,1.382
588.562,1.393
588.835,1.397
589.109,1.391
589.382,1.377
589.655,1.367
589.928,1.362
590.201,1.362
590.474,1.371
590.747,1.385
591.020,1.400
591.293,1.408
591.567,1.409
591.840,1.401
592.113,1.389
592.386,1.375
592.659,1.364
592.932,1.359
593.205,1.363
593.478,1.368
593.751,1.370
594.024,1.370
594.297,1.365
594.570,1.362
594.843,1.365
595.116,1.373
595.389,1.376
595.662,1.374
595.934,1.374
596.207,1.381
596.480,1.389
596.753,1.393
597.026,1.389
597.299,1.389
597.572,1.389
597.844,1.391
598.117,1.384
598.390,1.374
598.663,1.368
598.936,1.370
599.208,1.376
599.481,1.382
599.754,1.386
600.026,1.379
600.299,1.370
600.572,1.364
600.844,1.360
601.117,1.353
601.390,1.347
601.662,1.346
601.935,1.345
602.207,1.343
602.480,1.347
602.752,1.352
603.025,1.352
603.297,1.351
603.570,1.359
603.842,1.373
604.115,1.383
604.387,1.388
604.660,1.382
604.932,1.377
605.204,1.380
605.477,1.392
605.749,1.405
606.021,1.413
606.294,1.413
606.566,1.405
606.838,1.398
607.110,1.400
607.383,1.409
607.655,1.414
607.927,1.419
608.199,1.423
608.471,1.425
608.743,1.418
609.015,1.410
609.287,1.404
609.559,1.404
609.831,1.405
610.103,1.404
610.375,1.400
610.647,1.390
610.919,1.381
611.191,1.380
611.463,1.386
611.735,1.390
612.007,1.384
612.278,1.376
612.550,1.371
612.822,1.379
613.094,1.387
613.365,1.392
613.637,1.395
613.909,1.397
614.180,1.398
614.452,1.394
614.723,1.386
614.995,1.377
615.266,1.373
615.538,1.381
615.809,1.390
616.081,1.390
616.352,1.380
616.623,1.370
616.895,1.367
617.166,1.364
617.437,1.363
617.709,1.366
617.980,1.374
618.251,1.383
618.522,1.386
618.793,1.393
619.065,1.403
619.336,1.402
619.607,1.389
619.878,1.381
620.149,1.389
620.420,1.396
620.691,1.391
620.962,1.387
621.232,1.391
621.503,1.391
621.774,1.386
622.045,1.381
622.316,1.388
622.586,1.397
622.857,1.405
623.128,1.403
623.398,1.396
623.669,1.387
623.940,1.379
624.210,1.370
624.481,1.370
624.751,1.374
625.021,1.375
625.292,1.370
625.562,1.369
625.833,1.368
626.103,1.364
626.373,1.357
626.643,1.358
626.914,1.364
627.184,1.370
627.454,1.370
627.724,1.367
627.994,1.366
628.264,1.368
628.534,1.367
628.804,1.364
629.074,1.366
629.344,1.373
629.614,1.375
629.884,1.367
630.154,1.355
630.424,1.344
630.693,1.337
630.963,1.323
631.233,1.313
631.502,1.314
631.772,1.332
632.041,1.353
632.311,1.364
632.581,1.366
632.850,1.360
633.119,1.348
633.389,1.335
633.658,1.325
633.928,1.329
634.197,1.341
634.466,1.356
634.735,1.366
635.004,1.363
635.274,1.356
635.543,1.348
635.812,1.349
636.081,1.354
636.350,1.357
636.619,1.358
636.888,1.358
637.157,1.359
637.426,1.364
637.694,1.365
637.963,1.364
638.232,1.357
638.501,1.349
638.769,1.347
639.038,1.353
639.307,1.364
639.575,1.375
639.844,1.375
640.112,1.368
640.381,1.354
640.649,1.350
640.917,1.351
641.186,1.352
641.454,1.352
641.722,1.350
641.991,1.350
642.259,1.344
642.527,1.341
642.795,1.341
643.063,1.338
643.331,1.335
643.599,1.331
643.867,1.333
644.135,1.337
644.403,1.345
644.671,1.351
644.939,1.358
645.206,1.362
645.474,1.364
645.742,1.357
646.009,1.343
646.277,1.335
646.545,1.337
646.812,1.353
647.080,1.367
647.347,1.375
647.615,1.371
647.882,1.358
648.149,1.344
648.417,1.339
648.684,1.344
648.951,1.355
649.219,1.365
649.486,1.367
649.753,1.361
650.020,1.352
650.287,1.346
650.554,1.341
650.821,1.339
651.088,1.337
651.355,1.341
651.622,1.344
651.889,1.349
652.155,1.347
652.422,1.348
652.689,1.352
652.956,1.355
653.222,1.360
653.489,1.370
653.755,1.377
654.022,1.372
654.288,1.358
654.555,1.351
654.821,1.355
655.088,1.363
655.354,1.370
655.620,1.376
655.887,1.379
656.153,1.381
656.419,1.379
656.685,1.375
656.951,1.370
657.217,1.365
657.483,1.359
657.749,1.353
658.015,1.352
658.281,1.351
658.547,1.349
658.813,1.346
659.079,1.344
659.345,1.341
659.610,1.339
659.876,1.338
660.142,1.338
660.407,1.338
660.673,1.341
660.939,1.346
661.204,1.347
661.470,1.342
661.735,1.334
662.000,1.331
662.266,1.329
662.531,1.330
662.796,1.331
663.062,1.330
663.327,1.326
663.592,1.325
663.857,1.327
664.122,1.331
664.388,1.333
664.653,1.335
664.918,1.341
665.183,1.344
665.448,1.350
665.712,1.355
665.977,1.365
666.242,1.367
666.507,1.352
666.772,1.333
667.037,1.318
667.301,1.319
667.566,1.325
667.831,1.332
668.095,1.338
668.360,1.343
668.624,1.342
668.889,1.346
669.153,1.346
669.418,1.347
669.682,1.343
669.946,1.344
670.211,1.353
670.475,1.359
670.739,1.365
671.004,1.373
671.268,1.397
671.532,1.424
671.796,1.418
672.060,1.397
672.324,1.376
672.588,1.382
672.852,1.395
673.116,1.426
673.380,1.450
673.644,1.430
673.908,1.388
674.172,1.351
674.436,1.353
674.700,1.356
674.963,1.360
675.227,1.362
675.491,1.357
675.754,1.353
676.018,1.349
676.282,1.354
676.545,1.353
676.809,1.343
677.072,1.331
677.336,1.327
677.599,1.333
677.863,1.336
678.126,1.340
678.389,1.350
678.653,1.362
678.916,1.367
679.179,1.356
679.442,1.347
679.706,1.345
679.969,1.346
680.232,1.349
680.495,1.356
680.758,1.365
681.021,1.362
681.284,1.349
681.547,1.338
681.810,1.341
682.073,1.354
682.336,1.365
682.599,1.366
682.862,1.362
683.125,1.362
683.388,1.365
683.651,1.366
683.913,1.362
684.176,1.353
684.439,1.343
684.702,1.331
684.964,1.327
685.227,1.326
685.490,1.337
685.752,1.350
686.015,1.355
686.277,1.351
686.540,1.338
686.802,1.330
687.065,1.331
687.327,1.338
687.590,1.343
687.852,1.340
688.115,1.333
688.377,1.327
688.639,1.330
688.902,1.334
689.164,1.342
689.426,1.349
689.689,1.353
689.951,1.351
690.213,1.348
690.475,1.348
690.737,1.345
691.000,1.339
691.262,1.333
691.524,1.338
691.786,1.352
692.048,1.368
692.310,1.370
692.572,1.358
692.834,1.340
693.096,1.333
693.358,1.337
693.620,1.347
693.882,1.355
694.144,1.355
694.406,1.348
694.668,1.343
694.930,1.340
695.192,1.341
695.453,1.343
695.715,1.347
695.977,1.343
696.239,1.336
696.501,1.332
696.762,1.339
697.024,1.343
697.286,1.339
697.548,1.332
697.809,1.328
698.071,1.328
698.333,1.326
698.594,1.326
698.856,1.332
699.118,1.340
699.379,1.346
699.641,1.353
699.902,1.359
700.164,1.361
700.426,1.355
700.687,1.344
700.949,1.338
701.210,1.335
701.472,1.333
701.733,1.327
701.995,1.327
702.256,1.330
702.518,1.332
702.779,1.329
703.041,1.338
703.302,1.350
703.563,1.352
703.825,1.343
704.086,1.337
704.348,1.338
704.609,1.343
704.871,1.351
705.132,1.359
705.393,1.354
705.655,1.346
705.916,1.338
706.177,1.339
706.439,1.342
706.700,1.346
706.961,1.345
707.223,1.339
707.484,1.321
707.745,1.305
708.007,1.291
708.268,1.284
708.529,1.275
708.790,1.261
709.052,1.254
709.313,1.256
709.574,1.264
709.835,1.267
710.097,1.260
710.358,1.243
710.619,1.228
710.881,1.218
711.142,1.215
711.403,1.212
711.664,1.211
711.926,1.208
712.187,1.212
712.448,1.215
712.709,1.223
712.970,1.230
713.232,1.238
713.493,1.242
713.754,1.242
714.015,1.242
714.277,1.247
714.538,1.256
714.799,1.268
715.060,1.276
715.322,1.276
715.583,1.266
715.844,1.250
716.105,1.232
716.367,1.221
716.628,1.220
716.889,1.226
717.150,1.228
717.411,1.226
717.673,1.228
717.934,1.232
718.195,1.237
718.457,1.232
718.718,1.221
718.979,1.217
719.240,1.222
719.502,1.232
719.763,1.239
720.024,1.243
720.286,1.245
720.547,1.241
720.808,1.236
721.069,1.231
721.331,1.232
721.592,1.239
721.853,1.244
722.115,1.247
722.376,1.250
722.638,1.250
722.899,1.247
723.160,1.237
723.422,1.226
723.683,1.219
723.944,1.223
724.206,1.224
724.467,1.223
724.729,1.219
724.990,1.225
725.252,1.234
725.513,1.230
725.775,1.218
726.036,1.208
726.298,1.209
726.559,1.215
726.821,1.216
727.082,1.218
727.344,1.221
727.605,1.224
727.867,1.223
728.128,1.221
728.390,1.218
728.652,1.223
728.913,1.233
729.175,1.241
729.436,1.242
729.698,1.239
729.960,1.234
730.221,1.229
730.483,1.220
730.745,1.220
731.007,1.223
731.268,1.227
731.530,1.231
731.792,1.232
732.054,1.234
732.315,1.235
732.577,1.236
732.839,1.230
733.101,1.221
733.363,1.214
733.625,1.214
733.887,1.218
734.149,1.221
734.411,1.226
734.673,1.228
734.935,1.229
735.197,1.227
735.459,1.230
735.721,1.231
735.983,1.229
736.245,1.218
736.507,1.217
736.769,1.224
737.031,1.233
737.293,1.229
737.555,1.220
737.818,1.211
738.080,1.206
738.342,1.203
738.604,1.203
738.867,1.205
739.129,1.202
739.391,1.199
739.654,1.196
739.916,1.200
740.178,1.211
740.441,1.223
740.703,1.228
740.966,1.223
741.228,1.219
741.491,1.216
741.753,1.219
742.016,1.218
742.278,1.220
742.541,1.221
742.804,1.225
743.066,1.232
743.329,1.236
743.592,1.232
743.854,1.229
744.117,1.231
744.380,1.236
744.643,1.231
744.905,1.223
745.168,1.220
745.431,1.218
745.694,1.215
745.957,1.208
746.220,1.204
746.483,1.205
746.746,1.210
747.009,1.223
747.272,1.240
747.535,1.251
747.798,1.247
748.061,1.232
748.324,1.219
748.588,1.214
748.851,1.217
749.114,1.219
749.377,1.221
749.641,1.221
749.904,1.225
750.167,1.232
750.431,1.239
750.694,1.246
750.958,1.248
751.221,1.246
751.485,1.234
751.748,1.224
752.012,1.225
752.275,1.238
752.539,1.242
752.803,1.236
753.066,1.222
753.330,1.215
753.594,1.214
753.857,1.218
754.121,1.224
754.385,1.233
754.649,1.237
754.913,1.237
755.177,1.237
755.441,1.233
755.705,1.225
755.969,1.214
756.233,1.216
756.497,1.225
756.761,1.231
757.025,1.228
757.289,1.223
757.553,1.221
757.818,1.226
758.082,1.232
758.346,1.235
758.610,1.236
758.875,1.235
759.139,1.233
759.404,1.228
759.668,1.224
759.932,1.225
760.197,1.231
760.462,1.235
760.726,1.236
760.991,1.235
761.255,1.232
761.520,1.228
761.785,1.220
762.049,1.212
762.314,1.209
762.579,1.217
762.844,1.230
763.109,1.238
763.374,1.237
763.639,1.232
763.903,1.227
764.168,1.222
764.433,1.223
764.699,1.229
764.964,1.235
765.229,1.234
765.494,1.225
765.759,1.216
766.024,1.213
766.290,1.218
766.555,1.228
766.820,1.237
767.086,1.243
767.351,1.242
767.616,1.240
767.882,1.236
768.147,1.232
768.413,1.226
768.678,1.219
768.944,1.218
769.209,1.223
769.475,1.232
769.741,1.239
770.006,1.244
770.272,1.243
770.538,1.239
770.804,1.231
771.070,1.227
771.335,1.234
771.601,1.248
771.867,1.256
772.133,1.253
772.399,1.244
772.665,1.230
772.931,1.227
773.197,1.230
773.464,1.242
773.730,1.250
773.996,1.250
774.262,1.248
774.528,1.242
774.795,1.242
775.061,1.248
775.327,1.249
775.594,1.244
775.860,1.234
776.126,1.221
776.393,1.212
776.659,1.207
776.926,1.208
777.193,1.213
777.459,1.217
777.726,1.218
777.992,1.216
778.259,1.210
778.526,1.213
778.793,1.216
779.059,1.223
779.326,1.232
779.593,1.240
779.860,1.247
780.127,1.245
780.394,1.242
780.661,1.237
780.928,1.232
781.195,1.225
781.462,1.219
781.729,1.220
781.996,1.220
782.263,1.220
782.530,1.227
782.797,1.233
783.064,1.234
783.332,1.230
783.599,1.227
783.866,1.229
784.134,1.226
784.401,1.221
784.668,1.220
784.936,1.223
785.203,1.224
785.470,1.216
785.738,1.208
786.005,1.202
786.273,1.203
786.541,1.205
786.808,1.213
787.076,1.219
787.343,1.224
787.611,1.229
787.879,1.236
788.146,1.236
788.414,1.235
788.682,1.230
788.950,1.232
789.217,1.235
789.485,1.242
789.753,1.247
790.021,1.240
790.289,1.226
790.557,1.211
790.825,1.206
791.093,1.214
791.361,1.228
791.629,1.242
791.897,1.248
792.165,1.245
792.433,1.236
792.701,1.221
792.969,1.208
793.237,1.203
793.505,1.211
793.773,1.226
794.042,1.228
794.310,1.223
794.578,1.217
794.846,1.219
795.115,1.220
795.383,1.223
795.651,1.230
795.920,1.237
796.188,1.236
796.456,1.235
796.725,1.232
796.993,1.239
797.261,1.245
797.530,1.249
797.798,1.244
798.067,1.245
798.335,1.248
798.604,1.247
798.872,1.235
799.141,1.221
799.409,1.214
799.678,1.214
799.946,1.219
800.215,1.219
800.483,1.218
800.752,1.218
801.020,1.220
801.289,1.220
801.558,1.220
801.826,1.219
802.095,1.217
802.363,1.218
802.632,1.222
802.901,1.229
803.169,1.235
803.438,1.235
803.707,1.228
803.976,1.218
804.244,1.214
804.513,1.213
804.782,1.211
805.050,1.210
805.319,1.214
805.588,1.228
805.857,1.240
806.125,1.246
806.394,1.242
806.663,1.231
806.931,1.220
807.200,1.214
807.469,1.212
807.738,1.212
808.006,1.211
808.275,1.217
808.544,1.225
808.813,1.233
809.082,1.235
809.350,1.232
809.619,1.228
809.888,1.221
810.157,1.213
810.425,1.211
810.694,1.215
810.963,1.221
811.232,1.217
811.500,1.211
811.769,1.204
812.038,1.205
812.306,1.211
812.575,1.220
812.844,1.224
813.113,1.223
813.381,1.216
813.650,1.215
813.919,1.223
814.187,1.233
814.456,1.239
814.725,1.241
814.993,1.236
815.262,1.232
815.531,1.230
815.799,1.231
816.068,1.227
816.336,1.219
816.605,1.216
816.873,1.221
817.142,1.231
817.411,1.239
817.679,1.242
817.948,1.247
818.216,1.259
818.485,1.285
818.753,1.303
819.021,1.287
819.290,1.249
819.558,1.221
819.827,1.223
820.095,1.232
820.363,1.236
820.632,1.233
820.900,1.231
821.168,1.234
821.437,1.238
821.705,1.241
821.973,1.241
822.241,1.241
822.509,1.238
822.777,1.229
823.046,1.223
823.314,1.227
823.582,1.235
823.850,1.239
824.118,1.241
824.386,1.240
824.654,1.229
824.922,1.216
825.190,1.206
825.457,1.212
825.725,1.221
825.993,1.222
826.261,1.219
826.529,1.217
826.796,1.220
827.064,1.219
827.332,1.219
827.599,1.224
827.867,1.234
828.134,1.237
828.402,1.227
828.669,1.217
828.937,1.213
829.204,1.224
829.471,1.242
829.739,1.254
830.006,1.255
830.273,1.246
830.540,1.232
830.807,1.217
831.075,1.210
831.342,1.213
831.609,1.217
831.876,1.223
832.142,1.229
832.409,1.234
832.676,1.230
832.943,1.220
833.210,1.212
833.476,1.210
833.743,1.215
834.010,1.220
834.276,1.217
834.543,1.211
834.809,1.211
835.076,1.216
835.342,1.218
835.608,1.226
835.874,1.231
836.141,1.234
836.407,1.230
836.673,1.226
836.939,1.225
837.205,1.220
837.471,1.215
837.737,1.214
838.002,1.214
838.268,1.216
838.534,1.218
838.799,1.220
839.065,1.224
839.330,1.228
839.596,1.228
839.861,1.229
840.127,1.235
840.392,1.241
840.657,1.244
840.922,1.247
841.187,1.250
841.452,1.251
841.717,1.253
841.982,1.249
842.247,1.238
842.511,1.223
842.776,1.218
843.041,1.219
843.305,1.215
843.570,1.211
843.834,1.208
844.098,1.207
844.362,1.206
844.627,1.208
844.891,1.213
845.155,1.220
845.419,1.228
845.682,1.231
845.946,1.232
846.210,1.234
846.474,1.234
846.737,1.238
847.001,1.231
847.264,1.221
847.527,1.212
847.790,1.211
848.054,1.216
848.317,1.214
848.580,1.210
848.843,1.211
849.105,1.222
849.368,1.238
849.631,1.248
849.893,1.252
850.156,1.256
850.418,1.255
850.680,1.241
850.943,1.227
851.205,1.225
851.467,1.230
851.729,1.229
851.991,1.225
852.252,1.226
852.514,1.231
852.776,1.235
853.037,1.241
853.298,1.241
853.560,1.235
853.821,1.221
854.082,1.210
854.343,1.212
854.604,1.227
854.865,1.249
855.126,1.263
855.386,1.268
855.647,1.265
855.907,1.258
856.168,1.245
856.428,1.230
856.688,1.220
856.948,1.210
857.208,1.205
857.468,1.208
857.727,1.218
857.987,1.224
858.247,1.229
858.506,1.234
858.765,1.236
859.024,1.228
859.284,1.215
859.543,1.206
859.801,1.204
860.060,1.211
860.319,1.225
860.577,1.239
860.836,1.247
861.094,1.247
861.352,1.244
861.611,1.235
861.869,1.224
862.127,1.217
862.384,1.218
862.642,1.220
862.900,1.228
863.157,1.233
863.414,1.236
863.672,1.227
863.929,1.214
864.186,1.208
864.443,1.210
864.699,1.214
864.956,1.217
865.212,1.212
865.469,1.211
865.725,1.217
865.981,1.227
866.237,1.233
866.493,1.232
866.749,1.224
867.005,1.218
867.260,1.213
867.516,1.212
867.771,1.207
868.026,1.209
868.282,1.219
868.536,1.225
868.791,1.221
869.046,1.210
869.301,1.201
869.555,1.202
869.809,1.213
870.064,1.227
870.318,1.238
870.572,1.240
870.826,1.227
871.079,1.215
871.333,1.207
871.586,1.212
871.840,1.213
872.093,1.213
872.346,1.218
872.599,1.232
872.852,1.250
873.105,1.261
873.357,1.259
873.610,1.250
873.862,1.245
874.114,1.245
874.366,1.248
874.618,1.244
874.870,1.230
875.121,1.215
875.373,1.210
875.624,1.214
875.876,1.215
876.127,1.214
876.378,1.212
876.629,1.211
876.879,1.214
877.130,1.218
877.381,1.216
877.631,1.208
877.881,1.203
878.131,1.211
878.381,1.226
878.631,1.244
878.881,1.251
879.130,1.253
879.380,1.248
879.629,1.240
879.878,1.229
880.127,1.221
880.376,1.223
880.625,1.233
880.873,1.242
881.122,1.247
881.370,1.245
881.618,1.240
881.866,1.231
882.114,1.224
882.362,1.221
882.610,1.225
882.857,1.229
883.105,1.228
883.352,1.219
883.599,1.210
883.846,1.202
884.093,1.201
884.340,1.207
884.586,1.219
884.833,1.231
885.079,1.238
885.325,1.233
885.571,1.226
885.817,1.221
886.063,1.226
886.309,1.234
886.554,1.243
886.800,1.250
887.045,1.255
887.290,1.247
887.535,1.231
887.780,1.220
888.025,1.225
888.270,1.242
888.514,1.254
888.758,1.255
889.003,1.247
889.247,1.234
889.491,1.232
889.735,1.236
889.978,1.243
890.222,1.243
890.465,1.239
890.709,1.234
890.952,1.224
891.195,1.213
891.438,1.206
891.681,1.200
891.923,1.201
892.166,1.208
892.408,1.213
892.651,1.213
892.893,1.209
893.135,1.208
893.377,1.209
893.619,1.211
893.861,1.216
894.102,1.227
894.344,1.245
894.585,1.264
894.826,1.272
895.067,1.262
895.308,1.246
895.549,1.231
895.790,1.222
896.031,1.214
896.271,1.217
896.512,1.226
896.752,1.237
896.992,1.238
897.232,1.233
897.472,1.231
897.712,1.240
897.952,1.254
898.191,1.257
898.431,1.253
898.670,1.250
898.910,1.257
899.149,1.265
899.388,1.270
899.627,1.267
899.866,1.254
900.105,1.239
900.343,1.231
900.582,1.233
900.820,1.241
901.059,1.253
901.297,1.256
901.535,1.244
901.773,1.225
902.011,1.211
902.249,1.203
902.487,1.202
902.725,1.205
902.963,1.215
903.200,1.217
903.438,1.220
903.675,1.223
903.912,1.231
904.150,1.238
904.387,1.235
904.624,1.224
904.861,1.213
905.098,1.210
905.334,1.214
905.571,1.214
905.808,1.215
906.045,1.222
906.281,1.230
906.518,1.233
906.754,1.236
906.990,1.239
907.227,1.238
907.463,1.227
907.699,1.219
907.935,1.225
908.171,1.236
908.407,1.240
908.643,1.237
908.879,1.232
909.115,1.236
909.350,1.242
909.586,1.244
909.822,1.242
910.057,1.247
910.293,1.260
910.528,1.272
910.764,1.272
910.999,1.270
911.235,1.261
911.470,1.260
911.706,1.255
911.941,1.254
912.176,1.247
912.412,1.240
912.647,1.236
912.882,1.238
913.117,1.238
913.352,1.235
913.588,1.225
913.823,1.218
914.058,1.214
914.293,1.214
914.528,1.209
914.763,1.204
914.999,1.202
915.234,1.208
915.469,1.216
915.704,1.220
915.939,1.220
916.174,1.219
916.409,1.222
916.645,1.234
916.880,1.245
917.115,1.252
917.350,1.249
917.586,1.246
917.821,1.245
918.056,1.249
918.292,1.252
918.527,1.249
918.763,1.236
918.998,1.227
919.234,1.233
919.469,1.250
919.705,1.259
919.940,1.255
920.176,1.245
920.412,1.244
920.648,1.239
920.884,1.233
921.120,1.226
921.356,1.226
921.592,1.225
921.828,1.224
922.065,1.226
922.301,1.234
922.537,1.242
922.774,1.244
923.011,1.234
923.247,1.224
923.484,1.227
923.721,1.240
923.958,1.251
924.195,1.251
924.433,1.244
924.670,1.233
924.908,1.221
925.145,1.222
925.383,1.230
925.621,1.237
925.859,1.238
926.097,1.237
926.335,1.235
926.574,1.235
926.813,1.237
927.051,1.240
927.290,1.239
927.529,1.246
927.769,1.259
928.008,1.267
928.248,1.254
928.487,1.238
928.727,1.229
928.967,1.237
929.208,1.244
929.448,1.246
929.689,1.241
929.930,1.230
930.171,1.219
930.413,1.215
930.654,1.215
930.896,1.213
931.138,1.204
931.380,1.197
931.623,1.202
931.865,1.214
932.108,1.227
932.352,1.236
932.595,1.242
932.839,1.249
933.083,1.246
933.327,1.240
933.571,1.226
933.816,1.222
934.061,1.221
934.307,1.222
934.552,1.215
934.798,1.213
935.045,1.217
935.291,1.224
935.538,1.230
935.785,1.233
936.033,1.237
936.281,1.241
936.529,1.246
936.777,1.249
937.026,1.243
937.275,1.233
937.525,1.221
937.775,1.211
938.025,1.203
938.276,1.199
938.527,1.200
938.778,1.200
939.030,1.200
939.282,1.201
939.535,1.207
939.788,1.216
940.041,1.217
940.295,1.213
940.550,1.212
940.804,1.220
941.059,1.228
941.315,1.227
941.571,1.217
941.828,1.211
942.085,1.212
942.342,1.219
942.600,1.223
942.858,1.225
943.117,1.221
943.377,1.215
943.636,1.208
943.897,1.207
944.158,1.210
944.419,1.216
944.681,1.221
944.944,1.223
945.207,1.227
945.470,1.234
945.734,1.241
945.999,1.253
946.264,1.263
946.530,1.269
946.797,1.264
947.064,1.255
947.331,1.245
947.600,1.230
947.869,1.219
948.138,1.212
948.408,1.212
948.679,1.217
948.950,1.223
949.222,1.222
949.495,1.216
949.768,1.213
950.043,1.221
