Wavelength (nm),Intensity B17,,C:/Users/Brend/Desktop/LED Spectras v2/Spectrometer Data (Blue Condensed).sp,,,B17,
379.792,1.856,,2018-06-26 15:21:34,,Integration Time,152 ms,
380.000,1.849,,Analyze Light,,Number of Scans to Average,25,
380.209,1.844,,,,Smoothing,1,
380.418,1.854
380.627,1.875
380.837,1.894
381.048,1.900
381.259,1.902
381.471,1.898
381.683,1.902
381.896,1.911
382.110,1.920
382.324,1.934
382.538,1.950
382.753,1.964
382.969,1.960
383.185,1.952
383.402,1.948
383.619,1.958
383.837,1.970
384.055,1.990
384.274,2.005
384.493,2.012
384.712,2.012
384.932,2.017
385.153,2.027
385.374,2.038
385.596,2.049
385.818,2.064
386.040,2.080
386.263,2.094
386.487,2.098
386.710,2.100
386.935,2.091
387.159,2.084
387.385,2.077
387.610,2.080
387.836,2.084
388.063,2.092
388.289,2.096
388.517,2.100
388.744,2.102
388.972,2.118
389.201,2.131
389.430,2.142
389.659,2.146
389.889,2.152
390.119,2.162
390.349,2.172
390.580,2.185
390.811,2.195
391.042,2.200
391.274,2.203
391.507,2.207
391.739,2.207
391.972,2.203
392.205,2.209
392.439,2.223
392.673,2.243
392.907,2.257
393.142,2.273
393.377,2.285
393.612,2.300
393.848,2.305
394.084,2.314
394.320,2.317
394.557,2.328
394.794,2.332
395.031,2.341
395.269,2.346
395.507,2.358
395.745,2.360
395.983,2.363
396.222,2.369
396.461,2.391
396.700,2.416
396.940,2.435
397.180,2.441
397.420,2.437
397.660,2.430
397.901,2.425
398.142,2.424
398.383,2.421
398.625,2.415
398.866,2.420
399.108,2.442
399.351,2.479
399.593,2.493
399.836,2.495
400.079,2.483
400.322,2.478
400.566,2.474
400.809,2.473
401.053,2.477
401.298,2.483
401.542,2.492
401.787,2.503
402.031,2.518
402.277,2.534
402.522,2.545
402.767,2.555
403.013,2.552
403.259,2.553
403.505,2.550
403.752,2.553
403.998,2.556
404.245,2.573
404.492,2.594
404.739,2.612
404.986,2.619
405.234,2.625
405.482,2.626
405.730,2.629
405.978,2.632
406.226,2.634
406.475,2.631
406.723,2.631
406.972,2.641
407.221,2.661
407.470,2.672
407.720,2.681
407.969,2.677
408.219,2.689
408.469,2.699
408.719,2.711
408.969,2.711
409.219,2.716
409.470,2.723
409.720,2.739
409.971,2.752
410.222,2.771
410.473,2.775
410.724,2.775
410.976,2.775
411.227,2.789
411.479,2.802
411.731,2.814
411.983,2.814
412.235,2.814
412.487,2.810
412.740,2.816
412.992,2.825
413.245,2.840
413.497,2.842
413.750,2.842
414.003,2.834
414.257,2.832
414.510,2.829
414.763,2.838
415.017,2.844
415.270,2.853
415.524,2.852
415.778,2.855
416.032,2.853
416.286,2.862
416.540,2.867
416.794,2.880
417.049,2.881
417.303,2.882
417.558,2.879
417.812,2.879
418.067,2.880
418.322,2.886
418.577,2.889
418.832,2.890
419.088,2.878
419.343,2.873
419.598,2.860
419.854,2.862
420.109,2.863
420.365,2.882
420.621,2.890
420.876,2.903
421.132,2.903
421.388,2.903
421.645,2.897
421.901,2.903
422.157,2.913
422.413,2.926
422.670,2.925
422.926,2.929
423.183,2.931
423.439,2.951
423.696,2.971
423.953,3.013
424.210,3.049
424.467,3.069
424.724,3.070
424.981,3.070
425.238,3.088
425.495,3.126
425.753,3.161
426.010,3.193
426.267,3.218
426.525,3.259
426.782,3.300
427.040,3.348
427.298,3.398
427.555,3.465
427.813,3.524
428.071,3.586
428.329,3.639
428.587,3.706
428.845,3.776
429.103,3.855
429.361,3.933
429.619,4.018
429.878,4.105
430.136,4.208
430.394,4.312
430.653,4.441
430.911,4.582
431.170,4.735
431.428,4.869
431.687,5.004
431.946,5.138
432.204,5.289
432.463,5.445
432.722,5.615
432.981,5.787
433.240,5.978
433.499,6.184
433.758,6.411
434.017,6.629
434.276,6.852
434.535,7.071
434.794,7.306
435.053,7.561
435.312,7.841
435.572,8.128
435.831,8.425
436.090,8.732
436.350,9.071
436.609,9.418
436.869,9.777
437.128,10.128
437.388,10.492
437.647,10.876
437.907,11.287
438.166,11.707
438.426,12.144
438.686,12.593
438.946,13.070
439.205,13.566
439.465,14.096
439.725,14.639
439.985,15.207
440.245,15.772
440.505,16.362
440.765,16.968
441.025,17.600
441.285,18.258
441.545,18.941
441.805,19.661
442.065,20.402
442.325,21.175
442.585,21.988
442.846,22.856
443.106,23.777
443.366,24.737
443.626,25.726
443.887,26.743
444.147,27.810
444.407,28.936
444.668,30.128
444.928,31.364
445.189,32.661
445.449,34.017
445.710,35.447
445.970,36.940
446.231,38.502
446.491,40.134
446.752,41.822
447.012,43.577
447.273,45.400
447.534,47.282
447.794,49.193
448.055,51.148
448.316,53.189
448.577,55.321
448.837,57.540
449.098,59.797
449.359,62.085
449.620,64.362
449.881,66.630
450.142,68.878
450.403,71.140
450.664,73.421
450.924,75.710
451.185,77.979
451.446,80.167
451.707,82.214
451.969,84.029
452.230,85.552
452.491,86.801
452.752,87.821
453.013,88.703
453.274,89.459
453.535,90.128
453.796,90.681
454.058,91.140
454.319,91.499
454.580,91.777
454.841,91.978
455.103,92.106
455.364,92.171
455.625,92.180
455.887,92.128
456.148,92.026
456.409,91.868
456.671,91.660
456.932,91.386
457.194,91.031
457.455,90.597
457.716,90.078
457.978,89.464
458.239,88.745
458.501,87.918
458.763,86.977
459.024,85.888
459.286,84.565
459.547,82.998
459.809,81.185
460.071,79.242
460.332,77.230
460.594,75.208
460.856,73.204
461.117,71.225
461.379,69.295
461.641,67.414
461.903,65.585
462.164,63.818
462.426,62.109
462.688,60.468
462.950,58.898
463.212,57.397
463.474,55.962
463.736,54.588
463.998,53.311
464.260,52.128
464.522,51.028
464.784,49.989
465.046,48.996
465.308,48.072
465.570,47.193
465.832,46.378
466.094,45.586
466.356,44.838
466.618,44.106
466.880,43.400
467.142,42.688
467.405,42.005
467.667,41.344
467.929,40.703
468.191,40.058
468.454,39.400
468.716,38.742
468.978,38.057
469.241,37.351
469.503,36.643
469.765,35.951
470.028,35.278
470.290,34.594
470.552,33.908
470.815,33.206
471.077,32.498
471.340,31.774
471.602,31.053
471.865,30.319
472.128,29.591
472.390,28.869
472.653,28.162
472.915,27.467
473.178,26.774
473.441,26.092
473.703,25.396
473.966,24.701
474.229,23.998
474.492,23.310
474.755,22.616
475.017,21.951
475.280,21.316
475.543,20.718
475.806,20.113
476.069,19.505
476.332,18.904
476.595,18.342
476.858,17.801
477.121,17.272
477.384,16.752
477.647,16.270
477.910,15.813
478.173,15.380
478.436,14.941
478.699,14.530
478.962,14.134
479.226,13.784
479.489,13.442
479.752,13.114
480.015,12.775
480.279,12.458
480.542,12.145
480.805,11.840
481.069,11.529
481.332,11.236
481.595,10.960
481.859,10.728
482.122,10.496
482.386,10.269
482.649,10.024
482.913,9.793
483.177,9.556
483.440,9.320
483.704,9.082
483.967,8.875
484.231,8.680
484.495,8.502
484.759,8.319
485.022,8.135
485.286,7.935
485.550,7.735
485.814,7.519
486.078,7.314
486.342,7.115
486.606,6.948
486.869,6.791
487.133,6.645
487.397,6.491
487.662,6.329
487.926,6.154
488.190,5.986
488.454,5.821
488.718,5.669
488.982,5.501
489.246,5.349
489.511,5.192
489.775,5.051
490.039,4.905
490.304,4.763
490.568,4.613
490.832,4.481
491.097,4.367
491.361,4.266
491.626,4.157
491.890,4.048
492.155,3.937
492.419,3.838
492.684,3.730
492.949,3.630
493.213,3.534
493.478,3.464
493.743,3.387
494.008,3.297
494.272,3.197
494.537,3.118
494.802,3.052
495.067,2.996
495.332,2.939
495.597,2.889
495.862,2.833
496.127,2.786
496.392,2.732
496.657,2.679
496.922,2.621
497.187,2.574
497.452,2.533
497.718,2.509
497.983,2.476
498.248,2.442
498.513,2.397
498.779,2.370
499.044,2.350
499.310,2.323
499.575,2.282
499.841,2.247
500.106,2.219
500.372,2.189
500.637,2.162
500.903,2.151
501.168,2.141
501.434,2.120
501.700,2.080
501.966,2.050
502.231,2.023
502.497,2.002
502.763,1.972
503.029,1.946
503.295,1.926
503.561,1.916
503.827,1.909
504.093,1.902
504.359,1.891
504.625,1.879
504.891,1.861
505.157,1.849
505.423,1.827
505.690,1.807
505.956,1.788
506.222,1.785
506.489,1.794
506.755,1.804
507.021,1.805
507.288,1.799
507.554,1.788
507.821,1.774
508.087,1.761
508.354,1.756
508.621,1.751
508.887,1.738
509.154,1.720
509.421,1.707
509.687,1.697
509.954,1.686
510.221,1.673
510.488,1.672
510.755,1.675
511.022,1.681
511.289,1.669
511.556,1.655
511.823,1.640
512.090,1.645
512.357,1.641
512.624,1.637
512.891,1.623
513.159,1.614
513.426,1.606
513.693,1.599
513.960,1.596
514.228,1.598
514.495,1.604
514.763,1.607
515.030,1.598
515.298,1.582
515.565,1.574
515.833,1.574
516.100,1.578
516.368,1.577
516.636,1.573
516.904,1.569
517.171,1.560
517.439,1.553
517.707,1.542
517.975,1.538
518.243,1.539
518.511,1.538
518.779,1.525
519.047,1.519
519.315,1.517
519.583,1.513
519.851,1.495
520.119,1.483
520.387,1.480
520.656,1.484
520.924,1.489
521.192,1.496
521.461,1.504
521.729,1.512
521.997,1.517
522.266,1.517
522.534,1.516
522.803,1.517
523.071,1.509
523.340,1.492
523.609,1.474
523.877,1.465
524.146,1.461
524.415,1.464
524.684,1.470
524.952,1.470
525.221,1.468
525.490,1.473
525.759,1.485
526.028,1.487
526.297,1.473
526.566,1.459
526.835,1.450
527.104,1.450
527.373,1.452
527.642,1.454
527.912,1.448
528.181,1.439
528.450,1.434
528.719,1.440
528.989,1.458
529.258,1.474
529.528,1.478
529.797,1.468
530.067,1.461
530.336,1.453
530.606,1.446
530.875,1.433
531.145,1.427
531.414,1.431
531.684,1.443
531.954,1.448
532.224,1.441
532.493,1.423
532.763,1.413
533.033,1.411
533.303,1.421
533.573,1.428
533.843,1.426
534.113,1.419
534.383,1.410
534.653,1.413
534.923,1.423
535.193,1.435
535.463,1.444
535.733,1.450
536.004,1.454
536.274,1.455
536.544,1.446
536.814,1.432
537.085,1.420
537.355,1.422
537.626,1.436
537.896,1.451
538.166,1.457
538.437,1.454
538.707,1.444
538.978,1.441
539.249,1.445
539.519,1.448
539.790,1.438
540.061,1.428
540.331,1.433
540.602,1.446
540.873,1.454
541.144,1.457
541.414,1.455
541.685,1.455
541.956,1.453
542.227,1.450
542.498,1.444
542.769,1.441
543.040,1.445
543.311,1.457
543.582,1.471
543.853,1.479
544.124,1.482
544.396,1.484
544.667,1.486
544.938,1.480
545.209,1.456
545.480,1.439
545.752,1.431
546.023,1.441
546.294,1.441
546.566,1.434
546.837,1.422
547.109,1.414
547.380,1.407
547.652,1.400
547.923,1.398
548.195,1.408
548.466,1.425
548.738,1.440
549.009,1.441
549.281,1.433
549.553,1.419
549.824,1.402
550.096,1.392
550.368,1.390
550.640,1.395
550.911,1.403
551.183,1.419
551.455,1.439
551.727,1.447
551.999,1.435
552.271,1.418
552.543,1.406
552.815,1.402
553.087,1.407
553.359,1.415
553.631,1.422
553.903,1.424
554.175,1.428
554.447,1.435
554.719,1.440
554.991,1.440
555.263,1.436
555.535,1.426
555.808,1.416
556.080,1.405
556.352,1.402
556.624,1.404
556.897,1.403
557.169,1.402
557.441,1.396
557.714,1.391
557.986,1.388
558.258,1.384
558.531,1.391
558.803,1.398
559.076,1.408
559.348,1.403
559.621,1.397
559.893,1.395
560.166,1.394
560.438,1.392
560.711,1.386
560.983,1.385
561.256,1.388
561.528,1.396
561.801,1.405
562.074,1.419
562.346,1.429
562.619,1.438
562.892,1.431
563.164,1.419
563.437,1.409
563.710,1.404
563.983,1.395
564.255,1.385
564.528,1.388
564.801,1.401
565.074,1.407
565.346,1.397
565.619,1.392
565.892,1.398
566.165,1.406
566.438,1.399
566.711,1.389
566.984,1.382
567.257,1.382
567.529,1.386
567.802,1.402
568.075,1.417
568.348,1.419
568.621,1.416
568.894,1.410
569.167,1.409
569.440,1.400
569.713,1.387
569.986,1.380
570.259,1.373
570.532,1.378
570.805,1.384
571.078,1.393
571.351,1.401
571.625,1.403
571.898,1.398
572.171,1.386
572.444,1.376
572.717,1.381
572.990,1.392
573.263,1.396
573.536,1.387
573.809,1.373
574.083,1.366
574.356,1.369
574.629,1.384
574.902,1.394
575.175,1.393
575.448,1.382
575.721,1.373
575.995,1.373
576.268,1.374
576.541,1.383
576.814,1.393
577.087,1.401
577.361,1.404
577.634,1.401
577.907,1.388
578.180,1.371
578.453,1.357
578.727,1.358
579.000,1.362
579.273,1.370
579.546,1.381
579.820,1.394
580.093,1.395
580.366,1.386
580.639,1.373
580.913,1.369
581.186,1.371
581.459,1.374
581.732,1.368
582.005,1.364
582.279,1.359
582.552,1.360
582.825,1.359
583.098,1.362
583.372,1.368
583.645,1.373
583.918,1.378
584.191,1.383
584.464,1.386
584.738,1.387
585.011,1.384
585.284,1.377
585.557,1.369
585.831,1.369
586.104,1.383
586.377,1.403
586.650,1.414
586.923,1.413
587.196,1.404
587.470,1.391
587.743,1.381
588.016,1.373
588.289,1.375
588.562,1.384
588.835,1.386
589.109,1.380
589.382,1.367
589.655,1.357
589.928,1.353
590.201,1.354
590.474,1.361
590.747,1.373
591.020,1.384
591.293,1.389
591.567,1.388
591.840,1.382
592.113,1.373
592.386,1.360
592.659,1.348
592.932,1.346
593.205,1.355
593.478,1.361
593.751,1.361
594.024,1.358
594.297,1.353
594.570,1.352
594.843,1.356
595.116,1.368
595.389,1.374
595.662,1.374
595.934,1.374
596.207,1.381
596.480,1.391
596.753,1.399
597.026,1.399
597.299,1.394
597.572,1.388
597.844,1.383
598.117,1.376
598.390,1.370
598.663,1.368
598.936,1.371
599.208,1.374
599.481,1.380
599.754,1.381
600.026,1.372
600.299,1.360
600.572,1.354
600.844,1.353
601.117,1.347
601.390,1.340
601.662,1.336
601.935,1.335
602.207,1.337
602.480,1.345
602.752,1.350
603.025,1.348
603.297,1.348
603.570,1.358
603.842,1.374
604.115,1.381
604.387,1.380
604.660,1.371
604.932,1.366
605.204,1.370
605.477,1.381
605.749,1.395
606.021,1.405
606.294,1.410
606.566,1.400
606.838,1.393
607.110,1.391
607.383,1.400
607.655,1.405
607.927,1.410
608.199,1.412
608.471,1.415
608.743,1.411
609.015,1.404
609.287,1.397
609.559,1.395
609.831,1.394
610.103,1.392
610.375,1.386
610.647,1.378
610.919,1.370
611.191,1.369
611.463,1.375
611.735,1.380
612.007,1.377
612.278,1.373
612.550,1.368
612.822,1.371
613.094,1.374
613.365,1.375
613.637,1.378
613.909,1.380
614.180,1.385
614.452,1.383
614.723,1.376
614.995,1.366
615.266,1.364
615.538,1.374
615.809,1.383
616.081,1.382
616.352,1.375
616.623,1.373
616.895,1.373
617.166,1.369
617.437,1.366
617.709,1.367
617.980,1.374
618.251,1.380
618.522,1.384
618.793,1.395
619.065,1.411
619.336,1.411
619.607,1.397
619.878,1.386
620.149,1.391
620.420,1.395
620.691,1.390
620.962,1.389
621.232,1.396
621.503,1.396
621.774,1.385
622.045,1.374
622.316,1.379
622.586,1.392
622.857,1.408
623.128,1.411
623.398,1.405
623.669,1.392
623.940,1.377
624.210,1.365
624.481,1.367
624.751,1.373
625.021,1.375
625.292,1.369
625.562,1.368
625.833,1.364
626.103,1.355
626.373,1.343
626.643,1.339
626.914,1.342
627.184,1.350
627.454,1.356
627.724,1.358
627.994,1.360
628.264,1.364
628.534,1.359
628.804,1.354
629.074,1.354
629.344,1.364
629.614,1.370
629.884,1.365
630.154,1.353
630.424,1.339
630.693,1.327
630.963,1.316
631.233,1.307
631.502,1.308
631.772,1.324
632.041,1.343
632.311,1.355
632.581,1.358
632.850,1.356
633.119,1.345
633.389,1.332
633.658,1.325
633.928,1.330
634.197,1.341
634.466,1.354
634.735,1.363
635.004,1.360
635.274,1.353
635.543,1.346
635.812,1.348
636.081,1.351
636.350,1.348
636.619,1.345
636.888,1.345
637.157,1.350
637.426,1.358
637.694,1.360
637.963,1.358
638.232,1.352
638.501,1.347
638.769,1.348
639.038,1.352
639.307,1.364
639.575,1.370
639.844,1.368
640.112,1.357
640.381,1.346
640.649,1.343
640.917,1.347
641.186,1.351
641.454,1.357
641.722,1.359
641.991,1.358
642.259,1.348
642.527,1.340
642.795,1.338
643.063,1.333
643.331,1.331
643.599,1.327
643.867,1.334
644.135,1.341
644.403,1.350
644.671,1.353
644.939,1.360
645.206,1.369
645.474,1.376
645.742,1.369
646.009,1.353
646.277,1.340
646.545,1.339
646.812,1.354
647.080,1.370
647.347,1.377
647.615,1.372
647.882,1.361
648.149,1.349
648.417,1.341
648.684,1.341
648.951,1.351
649.219,1.359
649.486,1.361
649.753,1.356
650.020,1.346
650.287,1.338
650.554,1.331
650.821,1.329
651.088,1.329
651.355,1.338
651.622,1.345
651.889,1.351
652.155,1.348
652.422,1.348
652.689,1.354
652.956,1.358
653.222,1.366
653.489,1.380
653.755,1.389
654.022,1.383
654.288,1.365
654.555,1.353
654.821,1.349
655.088,1.353
655.354,1.359
655.620,1.370
655.887,1.375
656.153,1.379
656.419,1.378
656.685,1.375
656.951,1.371
657.217,1.366
657.483,1.360
657.749,1.357
658.015,1.358
658.281,1.357
658.547,1.348
658.813,1.338
659.079,1.331
659.345,1.326
659.610,1.325
659.876,1.325
660.142,1.329
660.407,1.332
660.673,1.337
660.939,1.345
661.204,1.348
661.470,1.345
661.735,1.342
662.000,1.347
662.266,1.348
662.531,1.346
662.796,1.342
663.062,1.338
663.327,1.332
663.592,1.330
663.857,1.332
664.122,1.334
664.388,1.331
664.653,1.333
664.918,1.338
665.183,1.344
665.448,1.350
665.712,1.356
665.977,1.362
666.242,1.359
666.507,1.341
666.772,1.325
667.037,1.317
667.301,1.323
667.566,1.328
667.831,1.332
668.095,1.337
668.360,1.342
668.624,1.342
668.889,1.346
669.153,1.344
669.418,1.342
669.682,1.339
669.946,1.340
670.211,1.350
670.475,1.361
670.739,1.376
671.004,1.390
671.268,1.415
671.532,1.442
671.796,1.432
672.060,1.408
672.324,1.381
672.588,1.385
672.852,1.398
673.116,1.437
673.380,1.472
673.644,1.453
673.908,1.401
674.172,1.355
674.436,1.358
674.700,1.366
674.963,1.371
675.227,1.372
675.491,1.365
675.754,1.356
676.018,1.349
676.282,1.350
676.545,1.349
676.809,1.339
677.072,1.326
677.336,1.319
677.599,1.326
677.863,1.335
678.126,1.347
678.389,1.360
678.653,1.371
678.916,1.371
679.179,1.356
679.442,1.342
679.706,1.339
679.969,1.343
680.232,1.351
680.495,1.360
680.758,1.369
681.021,1.366
681.284,1.354
681.547,1.343
681.810,1.348
682.073,1.363
682.336,1.372
682.599,1.370
682.862,1.365
683.125,1.367
683.388,1.374
683.651,1.377
683.913,1.372
684.176,1.360
684.439,1.345
684.702,1.327
684.964,1.318
685.227,1.322
685.490,1.339
685.752,1.358
686.015,1.363
686.277,1.357
686.540,1.346
686.802,1.338
687.065,1.341
687.327,1.349
687.590,1.354
687.852,1.345
688.115,1.329
688.377,1.318
688.639,1.316
688.902,1.320
689.164,1.327
689.426,1.340
689.689,1.351
689.951,1.352
690.213,1.349
690.475,1.348
690.737,1.348
691.000,1.343
691.262,1.338
691.524,1.343
691.786,1.358
692.048,1.372
692.310,1.370
692.572,1.355
692.834,1.338
693.096,1.336
693.358,1.348
693.620,1.366
693.882,1.376
694.144,1.374
694.406,1.362
694.668,1.352
694.930,1.344
695.192,1.338
695.453,1.338
695.715,1.341
695.977,1.341
696.239,1.334
696.501,1.329
696.762,1.335
697.024,1.338
697.286,1.335
697.548,1.333
697.809,1.337
698.071,1.340
698.333,1.338
698.594,1.332
698.856,1.335
699.118,1.340
699.379,1.345
699.641,1.351
699.902,1.357
700.164,1.360
700.426,1.357
700.687,1.351
700.949,1.349
701.210,1.345
701.472,1.340
701.733,1.330
701.995,1.328
702.256,1.329
702.518,1.330
702.779,1.333
703.041,1.346
703.302,1.361
703.563,1.361
703.825,1.348
704.086,1.336
704.348,1.334
704.609,1.338
704.871,1.348
705.132,1.358
705.393,1.352
705.655,1.342
705.916,1.335
706.177,1.338
706.439,1.342
706.700,1.344
706.961,1.343
707.223,1.340
707.484,1.325
707.745,1.314
708.007,1.304
708.268,1.296
708.529,1.287
708.790,1.273
709.052,1.268
709.313,1.271
709.574,1.280
709.835,1.285
710.097,1.281
710.358,1.268
710.619,1.255
710.881,1.243
711.142,1.236
711.403,1.229
711.664,1.226
711.926,1.221
712.187,1.225
712.448,1.233
712.709,1.248
712.970,1.258
713.232,1.261
713.493,1.263
713.754,1.263
714.015,1.267
714.277,1.271
714.538,1.277
714.799,1.284
715.060,1.286
715.322,1.285
715.583,1.277
715.844,1.269
716.105,1.257
716.367,1.249
716.628,1.247
716.889,1.248
717.150,1.245
717.411,1.243
717.673,1.249
717.934,1.258
718.195,1.262
718.457,1.255
718.718,1.244
718.979,1.238
719.240,1.241
719.502,1.248
719.763,1.255
720.024,1.259
720.286,1.262
720.547,1.255
720.808,1.248
721.069,1.244
721.331,1.252
721.592,1.261
721.853,1.265
722.115,1.265
722.376,1.264
722.638,1.265
722.899,1.267
723.160,1.260
723.422,1.253
723.683,1.245
723.944,1.248
724.206,1.249
724.467,1.250
724.729,1.246
724.990,1.251
725.252,1.257
725.513,1.253
725.775,1.239
726.036,1.223
726.298,1.220
726.559,1.225
726.821,1.229
727.082,1.230
727.344,1.229
727.605,1.230
727.867,1.230
728.128,1.233
728.390,1.234
728.652,1.243
728.913,1.256
729.175,1.266
729.436,1.270
729.698,1.273
729.960,1.270
730.221,1.263
730.483,1.247
730.745,1.243
731.007,1.244
731.268,1.247
731.530,1.246
731.792,1.244
732.054,1.243
732.315,1.244
732.577,1.245
732.839,1.243
733.101,1.237
733.363,1.230
733.625,1.228
733.887,1.228
734.149,1.230
734.411,1.238
734.673,1.245
734.935,1.251
735.197,1.249
735.459,1.251
735.721,1.254
735.983,1.251
736.245,1.241
736.507,1.240
736.769,1.245
737.031,1.251
737.293,1.246
737.555,1.236
737.818,1.225
738.080,1.215
738.342,1.213
738.604,1.214
738.867,1.221
739.129,1.223
739.391,1.224
739.654,1.224
739.916,1.228
740.178,1.236
740.441,1.246
740.703,1.248
740.966,1.242
741.228,1.234
741.491,1.229
741.753,1.231
742.016,1.233
742.278,1.239
742.541,1.241
742.804,1.246
743.066,1.253
743.329,1.256
743.592,1.251
743.854,1.249
744.117,1.256
744.380,1.265
744.643,1.262
744.905,1.253
745.168,1.247
745.431,1.244
745.694,1.239
745.957,1.232
746.220,1.227
746.483,1.226
746.746,1.225
747.009,1.235
747.272,1.254
747.535,1.272
747.798,1.278
748.061,1.268
748.324,1.252
748.588,1.239
748.851,1.232
749.114,1.231
749.377,1.236
749.641,1.243
749.904,1.251
750.167,1.259
750.431,1.262
750.694,1.268
750.958,1.268
751.221,1.262
751.485,1.245
751.748,1.234
752.012,1.238
752.275,1.255
752.539,1.263
752.803,1.257
753.066,1.242
753.330,1.233
753.594,1.231
753.857,1.233
754.121,1.239
754.385,1.248
754.649,1.255
754.913,1.259
755.177,1.262
755.441,1.257
755.705,1.245
755.969,1.231
756.233,1.231
756.497,1.236
756.761,1.239
757.025,1.235
757.289,1.233
757.553,1.232
757.818,1.238
758.082,1.246
758.346,1.252
758.610,1.252
758.875,1.251
759.139,1.249
759.404,1.247
759.668,1.245
759.932,1.247
760.197,1.252
760.462,1.254
760.726,1.252
760.991,1.249
761.255,1.249
761.520,1.248
761.785,1.240
762.049,1.227
762.314,1.221
762.579,1.228
762.844,1.244
763.109,1.254
763.374,1.252
763.639,1.245
763.903,1.240
764.168,1.235
764.433,1.233
764.699,1.240
764.964,1.246
765.229,1.246
765.494,1.237
765.759,1.233
766.024,1.233
766.290,1.240
766.555,1.248
766.820,1.253
767.086,1.254
767.351,1.254
767.616,1.252
767.882,1.249
768.147,1.244
768.413,1.240
768.678,1.237
768.944,1.240
769.209,1.248
769.475,1.262
769.741,1.274
770.006,1.282
770.272,1.283
770.538,1.276
770.804,1.268
771.070,1.262
771.335,1.264
771.601,1.273
771.867,1.279
772.133,1.277
772.399,1.270
772.665,1.256
772.931,1.254
773.197,1.259
773.464,1.272
773.730,1.279
773.996,1.282
774.262,1.283
774.528,1.280
774.795,1.279
775.061,1.283
775.327,1.288
775.594,1.281
775.860,1.265
776.126,1.247
776.393,1.233
776.659,1.226
776.926,1.222
777.193,1.225
777.459,1.228
777.726,1.229
777.992,1.227
778.259,1.222
778.526,1.225
778.793,1.230
779.059,1.242
779.326,1.251
779.593,1.257
779.860,1.262
780.127,1.260
780.394,1.260
780.661,1.258
780.928,1.253
781.195,1.245
781.462,1.239
781.729,1.240
781.996,1.245
782.263,1.249
782.530,1.261
782.797,1.269
783.064,1.270
783.332,1.257
783.599,1.245
783.866,1.241
784.134,1.237
784.401,1.238
784.668,1.238
784.936,1.242
785.203,1.240
785.470,1.235
785.738,1.232
786.005,1.230
786.273,1.225
786.541,1.220
786.808,1.222
787.076,1.227
787.343,1.232
787.611,1.239
787.879,1.252
788.146,1.259
788.414,1.264
788.682,1.260
788.950,1.259
789.217,1.259
789.485,1.268
789.753,1.273
790.021,1.264
790.289,1.245
790.557,1.226
790.825,1.217
791.093,1.221
791.361,1.236
791.629,1.251
791.897,1.259
792.165,1.260
792.433,1.253
792.701,1.241
792.969,1.228
793.237,1.222
793.505,1.228
793.773,1.238
794.042,1.240
794.310,1.237
794.578,1.234
794.846,1.235
795.115,1.234
795.383,1.234
795.651,1.240
795.920,1.247
796.188,1.250
796.456,1.255
796.725,1.261
796.993,1.270
797.261,1.273
797.530,1.266
797.798,1.255
798.067,1.253
798.335,1.259
798.604,1.257
798.872,1.242
799.141,1.229
799.409,1.226
799.678,1.230
799.946,1.238
800.215,1.243
800.483,1.244
800.752,1.241
801.020,1.233
801.289,1.227
801.558,1.225
801.826,1.228
802.095,1.228
802.363,1.228
802.632,1.232
802.901,1.242
803.169,1.249
803.438,1.248
803.707,1.239
803.976,1.229
804.244,1.227
804.513,1.232
804.782,1.231
805.050,1.226
805.319,1.225
805.588,1.236
805.857,1.249
806.125,1.254
806.394,1.251
806.663,1.238
806.931,1.226
807.200,1.221
807.469,1.225
807.738,1.228
808.006,1.228
808.275,1.233
808.544,1.245
808.813,1.255
809.082,1.250
809.350,1.239
809.619,1.233
809.888,1.229
810.157,1.226
810.425,1.220
810.694,1.222
810.963,1.230
811.232,1.232
811.500,1.226
811.769,1.215
812.038,1.216
812.306,1.226
812.575,1.241
812.844,1.250
813.113,1.254
813.381,1.247
813.650,1.245
813.919,1.246
814.187,1.255
814.456,1.257
814.725,1.256
814.993,1.253
815.262,1.251
815.531,1.250
815.799,1.249
816.068,1.242
816.336,1.231
816.605,1.227
816.873,1.230
817.142,1.240
817.411,1.250
817.679,1.256
817.948,1.264
818.216,1.276
818.485,1.306
818.753,1.326
819.021,1.307
819.290,1.265
819.558,1.234
819.827,1.237
820.095,1.247
820.363,1.251
820.632,1.250
820.900,1.248
821.168,1.251
821.437,1.257
821.705,1.260
821.973,1.259
822.241,1.258
822.509,1.257
822.777,1.252
823.046,1.247
823.314,1.248
823.582,1.255
823.850,1.260
824.118,1.262
824.386,1.258
824.654,1.244
824.922,1.226
825.190,1.212
825.457,1.220
825.725,1.233
825.993,1.240
826.261,1.240
826.529,1.241
826.796,1.244
827.064,1.242
827.332,1.238
827.599,1.242
827.867,1.255
828.134,1.259
828.402,1.250
828.669,1.238
828.937,1.235
829.204,1.249
829.471,1.267
829.739,1.278
830.006,1.279
830.273,1.270
830.540,1.259
830.807,1.244
831.075,1.239
831.342,1.244
831.609,1.252
831.876,1.256
832.142,1.256
832.409,1.258
832.676,1.253
832.943,1.241
833.210,1.230
833.476,1.225
833.743,1.230
834.010,1.235
834.276,1.231
834.543,1.225
834.809,1.229
835.076,1.237
835.342,1.241
835.608,1.248
835.874,1.256
836.141,1.257
836.407,1.254
836.673,1.247
836.939,1.246
837.205,1.243
837.471,1.241
837.737,1.242
838.002,1.243
838.268,1.243
838.534,1.243
838.799,1.239
839.065,1.239
839.330,1.238
839.596,1.239
839.861,1.242
840.127,1.252
840.392,1.262
840.657,1.269
840.922,1.273
841.187,1.276
841.452,1.275
841.717,1.271
841.982,1.262
842.247,1.251
842.511,1.241
842.776,1.240
843.041,1.243
843.305,1.241
843.570,1.239
843.834,1.237
844.098,1.235
844.362,1.236
844.627,1.235
844.891,1.237
845.155,1.239
845.419,1.245
845.682,1.254
845.946,1.262
846.210,1.269
846.474,1.267
846.737,1.267
847.001,1.259
847.264,1.247
847.527,1.237
847.790,1.236
848.054,1.238
848.317,1.232
848.580,1.228
848.843,1.232
849.105,1.245
849.368,1.258
849.631,1.262
849.893,1.265
850.156,1.272
850.418,1.275
850.680,1.264
850.943,1.251
851.205,1.252
851.467,1.256
851.729,1.252
851.991,1.246
852.252,1.251
852.514,1.262
852.776,1.267
853.037,1.271
853.298,1.265
853.560,1.255
853.821,1.238
854.082,1.225
854.343,1.227
854.604,1.244
854.865,1.270
855.126,1.288
855.386,1.295
855.647,1.289
855.907,1.275
856.168,1.255
856.428,1.240
856.688,1.234
856.948,1.227
857.208,1.219
857.468,1.220
857.727,1.229
857.987,1.236
858.247,1.239
858.506,1.245
858.765,1.252
859.024,1.246
859.284,1.239
859.543,1.233
859.801,1.234
860.060,1.239
860.319,1.253
860.577,1.267
860.836,1.271
861.094,1.270
861.352,1.265
861.611,1.254
861.869,1.238
862.127,1.231
862.384,1.236
862.642,1.245
862.900,1.260
863.157,1.271
863.414,1.270
863.672,1.252
863.929,1.231
864.186,1.226
864.443,1.232
864.699,1.239
864.956,1.243
865.212,1.239
865.469,1.237
865.725,1.242
865.981,1.250
866.237,1.254
866.493,1.251
866.749,1.244
867.005,1.242
867.260,1.236
867.516,1.230
867.771,1.224
868.026,1.227
868.282,1.240
868.536,1.247
868.791,1.243
869.046,1.229
869.301,1.220
869.555,1.223
869.809,1.238
870.064,1.254
870.318,1.268
870.572,1.273
870.826,1.259
871.079,1.246
871.333,1.237
871.586,1.244
871.840,1.247
872.093,1.248
872.346,1.253
872.599,1.267
872.852,1.280
873.105,1.287
873.357,1.279
873.610,1.267
873.862,1.263
874.114,1.266
874.366,1.271
874.618,1.263
874.870,1.245
875.121,1.229
875.373,1.226
875.624,1.232
875.876,1.235
876.127,1.235
876.378,1.234
876.629,1.235
876.879,1.242
877.130,1.247
877.381,1.246
877.631,1.235
877.881,1.227
878.131,1.232
878.381,1.248
878.631,1.266
878.881,1.271
879.130,1.266
879.380,1.256
879.629,1.246
879.878,1.238
880.127,1.232
880.376,1.234
880.625,1.245
880.873,1.256
881.122,1.261
881.370,1.261
881.618,1.253
881.866,1.241
882.114,1.232
882.362,1.234
882.610,1.247
882.857,1.259
883.105,1.263
883.352,1.252
883.599,1.239
883.846,1.228
884.093,1.227
884.340,1.234
884.586,1.245
884.833,1.254
885.079,1.259
885.325,1.255
885.571,1.251
885.817,1.244
886.063,1.246
886.309,1.249
886.554,1.258
886.800,1.265
887.045,1.271
887.290,1.264
887.535,1.251
887.780,1.242
888.025,1.248
888.270,1.265
888.514,1.282
888.758,1.289
889.003,1.284
889.247,1.266
889.491,1.259
889.735,1.262
889.978,1.275
890.222,1.276
890.465,1.270
890.709,1.259
890.952,1.248
891.195,1.238
891.438,1.229
891.681,1.223
891.923,1.226
892.166,1.232
892.408,1.237
892.651,1.235
892.893,1.228
893.135,1.224
893.377,1.226
893.619,1.228
893.861,1.233
894.102,1.240
894.344,1.256
894.585,1.273
894.826,1.287
895.067,1.284
895.308,1.272
895.549,1.254
895.790,1.241
896.031,1.231
896.271,1.235
896.512,1.249
896.752,1.261
896.992,1.259
897.232,1.251
897.472,1.246
897.712,1.255
897.952,1.269
898.191,1.274
898.431,1.271
898.670,1.272
898.910,1.275
899.149,1.284
899.388,1.286
899.627,1.285
899.866,1.278
900.105,1.268
900.343,1.264
900.582,1.264
900.820,1.270
901.059,1.283
901.297,1.288
901.535,1.272
901.773,1.248
902.011,1.229
902.249,1.221
902.487,1.220
902.725,1.225
902.963,1.235
903.200,1.238
903.438,1.234
903.675,1.232
903.912,1.240
904.150,1.251
904.387,1.254
904.624,1.242
904.861,1.228
905.098,1.221
905.334,1.226
905.571,1.227
905.808,1.226
906.045,1.233
906.281,1.246
906.518,1.255
906.754,1.258
906.990,1.261
907.227,1.262
907.463,1.255
907.699,1.247
907.935,1.247
908.171,1.254
908.407,1.253
908.643,1.249
908.879,1.248
909.115,1.258
909.350,1.266
909.586,1.270
909.822,1.268
910.057,1.275
910.293,1.292
910.528,1.303
910.764,1.300
910.999,1.296
911.235,1.289
911.470,1.287
911.706,1.276
911.941,1.270
912.176,1.261
912.412,1.255
912.647,1.255
912.882,1.260
913.117,1.262
913.352,1.258
913.588,1.253
913.823,1.250
914.058,1.248
914.293,1.245
914.528,1.237
914.763,1.231
914.999,1.229
915.234,1.234
915.469,1.240
915.704,1.242
915.939,1.241
916.174,1.234
916.409,1.234
916.645,1.246
916.880,1.259
917.115,1.267
917.350,1.264
917.586,1.261
917.821,1.259
918.056,1.264
918.292,1.270
918.527,1.269
918.763,1.257
918.998,1.247
919.234,1.251
919.469,1.264
919.705,1.270
919.940,1.264
920.176,1.259
920.412,1.265
920.648,1.266
920.884,1.261
921.120,1.251
921.356,1.246
921.592,1.245
921.828,1.245
922.065,1.248
922.301,1.255
922.537,1.265
922.774,1.269
923.011,1.261
923.247,1.249
923.484,1.245
923.721,1.255
923.958,1.264
924.195,1.266
924.433,1.261
924.670,1.246
924.908,1.232
925.145,1.229
925.383,1.241
925.621,1.251
925.859,1.256
926.097,1.261
926.335,1.263
926.574,1.262
926.813,1.259
927.051,1.260
927.290,1.261
927.529,1.270
927.769,1.283
928.008,1.288
928.248,1.273
928.487,1.255
928.727,1.247
928.967,1.259
929.208,1.268
929.448,1.270
929.689,1.260
929.930,1.247
930.171,1.235
930.413,1.233
930.654,1.238
930.896,1.236
931.138,1.228
931.380,1.218
931.623,1.223
931.865,1.234
932.108,1.245
932.352,1.252
932.595,1.257
932.839,1.263
933.083,1.258
933.327,1.248
933.571,1.238
933.816,1.242
934.061,1.250
934.307,1.251
934.552,1.240
934.798,1.234
935.045,1.237
935.291,1.244
935.538,1.246
935.785,1.249
936.033,1.257
936.281,1.268
936.529,1.275
936.777,1.270
937.026,1.258
937.275,1.246
937.525,1.239
937.775,1.235
938.025,1.230
938.276,1.227
938.527,1.225
938.778,1.225
939.030,1.226
939.282,1.228
939.535,1.233
939.788,1.243
940.041,1.244
940.295,1.239
940.550,1.236
940.804,1.243
941.059,1.251
941.315,1.244
941.571,1.228
941.828,1.214
942.085,1.215
942.342,1.224
942.600,1.230
942.858,1.230
943.117,1.225
943.377,1.220
943.636,1.217
943.897,1.218
944.158,1.226
944.419,1.237
944.681,1.242
944.944,1.246
945.207,1.250
945.470,1.256
945.734,1.263
945.999,1.276
946.264,1.292
946.530,1.300
946.797,1.291
947.064,1.275
947.331,1.262
947.600,1.250
947.869,1.240
948.138,1.229
948.408,1.225
948.679,1.229
948.950,1.237
949.222,1.240
949.495,1.238
949.768,1.242
950.043,1.254
