Wavelength (nm),Intensity BB3,,C:/Users/Brend/Desktop/LED Spectras v2/Blinds/Spectrometer Data (Blue [Blind 2]).sp,,,BB3,
379.792,1.734,,2018-06-28 13:58:05,,Integration Time,159 ms,
380.000,1.730,,Analyze Light,,Number of Scans to Average,25,
380.209,1.724,,,,Smoothing,1,
380.418,1.734
380.627,1.752
380.837,1.772
381.048,1.784
381.259,1.783
381.471,1.777
381.683,1.778
381.896,1.786
382.110,1.793
382.324,1.803
382.538,1.820
382.753,1.835
382.969,1.833
383.185,1.820
383.402,1.812
383.619,1.821
383.837,1.836
384.055,1.860
384.274,1.878
384.493,1.890
384.712,1.891
384.932,1.893
385.153,1.897
385.374,1.906
385.596,1.913
385.818,1.928
386.040,1.944
386.263,1.963
386.487,1.971
386.710,1.973
386.935,1.965
387.159,1.961
387.385,1.954
387.610,1.952
387.836,1.952
388.063,1.960
388.289,1.972
388.517,1.985
388.744,1.991
388.972,2.002
389.201,2.007
389.430,2.014
389.659,2.018
389.889,2.030
390.119,2.041
390.349,2.051
390.580,2.062
390.811,2.071
391.042,2.075
391.274,2.075
391.507,2.074
391.739,2.074
391.972,2.071
392.205,2.075
392.439,2.088
392.673,2.109
392.907,2.126
393.142,2.139
393.377,2.147
393.612,2.160
393.848,2.166
394.084,2.171
394.320,2.170
394.557,2.178
394.794,2.186
395.031,2.201
395.269,2.215
395.507,2.229
395.745,2.232
395.983,2.236
396.222,2.245
396.461,2.266
396.700,2.290
396.940,2.305
397.180,2.313
397.420,2.313
397.660,2.314
397.901,2.312
398.142,2.319
398.383,2.321
398.625,2.325
398.866,2.332
399.108,2.351
399.351,2.379
399.593,2.389
399.836,2.390
400.079,2.380
400.322,2.380
400.566,2.377
400.809,2.377
401.053,2.381
401.298,2.390
401.542,2.404
401.787,2.420
402.031,2.433
402.277,2.445
402.522,2.451
402.767,2.462
403.013,2.461
403.259,2.465
403.505,2.465
403.752,2.471
403.998,2.475
404.245,2.495
404.492,2.517
404.739,2.534
404.986,2.541
405.234,2.550
405.482,2.553
405.730,2.549
405.978,2.544
406.226,2.539
406.475,2.535
406.723,2.537
406.972,2.550
407.221,2.568
407.470,2.578
407.720,2.588
407.969,2.587
408.219,2.595
408.469,2.603
408.719,2.621
408.969,2.632
409.219,2.646
409.470,2.654
409.720,2.664
409.971,2.671
410.222,2.689
410.473,2.702
410.724,2.711
410.976,2.713
411.227,2.722
411.479,2.729
411.731,2.741
411.983,2.744
412.235,2.748
412.487,2.744
412.740,2.755
412.992,2.764
413.245,2.782
413.497,2.787
413.750,2.795
414.003,2.795
414.257,2.797
414.510,2.796
414.763,2.811
415.017,2.826
415.270,2.843
415.524,2.844
415.778,2.848
416.032,2.850
416.286,2.871
416.540,2.884
416.794,2.899
417.049,2.900
417.303,2.908
417.558,2.916
417.812,2.924
418.067,2.929
418.322,2.933
418.577,2.932
418.832,2.930
419.088,2.920
419.343,2.922
419.598,2.919
419.854,2.923
420.109,2.926
420.365,2.942
420.621,2.953
420.876,2.964
421.132,2.965
421.388,2.968
421.645,2.961
421.901,2.964
422.157,2.968
422.413,2.980
422.670,2.979
422.926,2.982
423.183,2.981
423.439,2.996
423.696,3.006
423.953,3.034
424.210,3.055
424.467,3.061
424.724,3.048
424.981,3.030
425.238,3.028
425.495,3.046
425.753,3.066
426.010,3.082
426.267,3.087
426.525,3.112
426.782,3.139
427.040,3.175
427.298,3.207
427.555,3.249
427.813,3.281
428.071,3.315
428.329,3.345
428.587,3.383
428.845,3.418
429.103,3.459
429.361,3.497
429.619,3.542
429.878,3.587
430.136,3.644
430.394,3.700
430.653,3.777
430.911,3.854
431.170,3.943
431.428,4.020
431.687,4.103
431.946,4.181
432.204,4.275
432.463,4.377
432.722,4.486
432.981,4.592
433.240,4.714
433.499,4.851
433.758,5.006
434.017,5.145
434.276,5.285
434.535,5.419
434.794,5.572
435.053,5.736
435.312,5.919
435.572,6.114
435.831,6.321
436.090,6.536
436.350,6.764
436.609,7.001
436.869,7.244
437.128,7.490
437.388,7.753
437.647,8.028
437.907,8.324
438.166,8.614
438.426,8.919
438.686,9.232
438.946,9.571
439.205,9.924
439.465,10.305
439.725,10.711
439.985,11.137
440.245,11.556
440.505,11.986
440.765,12.431
441.025,12.891
441.285,13.355
441.545,13.837
441.805,14.333
442.065,14.851
442.325,15.388
442.585,15.970
442.846,16.587
443.106,17.244
443.366,17.915
443.626,18.612
443.887,19.319
444.147,20.062
444.407,20.820
444.668,21.629
444.928,22.459
445.189,23.340
445.449,24.247
445.710,25.197
445.970,26.187
446.231,27.220
446.491,28.297
446.752,29.420
447.012,30.591
447.273,31.828
447.534,33.103
447.794,34.404
448.055,35.734
448.316,37.137
448.577,38.635
448.837,40.219
449.098,41.860
449.359,43.542
449.620,45.255
449.881,47.000
450.142,48.789
450.403,50.631
450.664,52.537
450.924,54.512
451.185,56.541
451.446,58.618
451.707,60.716
451.969,62.830
452.230,64.963
452.491,67.123
452.752,69.281
453.013,71.423
453.274,73.535
453.535,75.619
453.796,77.650
454.058,79.618
454.319,81.491
454.580,83.204
454.841,84.689
455.103,85.920
455.364,86.944
455.625,87.816
455.887,88.598
456.148,89.291
456.409,89.901
456.671,90.434
456.932,90.888
457.194,91.257
457.455,91.544
457.716,91.768
457.978,91.940
458.239,92.061
458.501,92.136
458.763,92.158
459.024,92.122
459.286,92.028
459.547,91.893
459.809,91.704
460.071,91.457
460.332,91.145
460.594,90.763
460.856,90.319
461.117,89.796
461.379,89.196
461.641,88.513
461.903,87.737
462.164,86.842
462.426,85.787
462.688,84.510
462.950,82.988
463.212,81.238
463.474,79.362
463.736,77.441
463.998,75.546
464.260,73.682
464.522,71.859
464.784,70.054
465.046,68.287
465.308,66.572
465.570,64.940
465.832,63.383
466.094,61.875
466.356,60.406
466.618,58.986
466.880,57.640
467.142,56.358
467.405,55.120
467.667,53.946
467.929,52.842
468.191,51.805
468.454,50.809
468.716,49.847
468.978,48.909
469.241,48.006
469.503,47.136
469.765,46.338
470.028,45.565
470.290,44.830
470.552,44.103
470.815,43.412
471.077,42.722
471.340,42.050
471.602,41.386
471.865,40.732
472.128,40.077
472.390,39.418
472.653,38.760
472.915,38.084
473.178,37.414
473.441,36.746
473.703,36.070
473.966,35.379
474.229,34.665
474.492,33.949
474.755,33.202
475.017,32.474
475.280,31.751
475.543,31.065
475.806,30.351
476.069,29.618
476.332,28.856
476.595,28.100
476.858,27.350
477.121,26.615
477.384,25.892
477.647,25.188
477.910,24.501
478.173,23.814
478.436,23.140
478.699,22.482
478.962,21.842
479.226,21.234
479.489,20.628
479.752,20.057
480.015,19.483
480.279,18.928
480.542,18.374
480.805,17.846
481.069,17.331
481.332,16.844
481.595,16.374
481.859,15.943
482.122,15.524
482.386,15.120
482.649,14.719
482.913,14.330
483.177,13.951
483.440,13.589
483.704,13.248
483.967,12.943
484.231,12.653
484.495,12.373
484.759,12.087
485.022,11.801
485.286,11.517
485.550,11.238
485.814,10.945
486.078,10.667
486.342,10.406
486.606,10.188
486.869,9.977
487.133,9.774
487.397,9.559
487.662,9.347
487.926,9.127
488.190,8.916
488.454,8.697
488.718,8.490
488.982,8.278
489.246,8.084
489.511,7.876
489.775,7.675
490.039,7.472
490.304,7.288
490.568,7.101
490.832,6.922
491.097,6.747
491.361,6.586
491.626,6.416
491.890,6.248
492.155,6.075
492.419,5.919
492.684,5.751
492.949,5.592
493.213,5.432
493.478,5.297
493.743,5.151
494.008,4.990
494.272,4.816
494.537,4.667
494.802,4.535
495.067,4.424
495.332,4.311
495.597,4.210
495.862,4.097
496.127,3.991
496.392,3.874
496.657,3.770
496.922,3.664
497.187,3.571
497.452,3.484
497.718,3.414
497.983,3.335
498.248,3.258
498.513,3.165
498.779,3.097
499.044,3.030
499.310,2.963
499.575,2.880
499.841,2.813
500.106,2.758
500.372,2.706
500.637,2.656
500.903,2.622
501.168,2.583
501.434,2.531
501.700,2.461
501.966,2.407
502.231,2.362
502.497,2.328
502.763,2.289
503.029,2.251
503.295,2.216
503.561,2.185
503.827,2.162
504.093,2.143
504.359,2.119
504.625,2.093
504.891,2.059
505.157,2.039
505.423,2.008
505.690,1.976
505.956,1.939
506.222,1.917
506.489,1.917
506.755,1.926
507.021,1.929
507.288,1.921
507.554,1.896
507.821,1.873
508.087,1.852
508.354,1.851
508.621,1.843
508.887,1.828
509.154,1.805
509.421,1.786
509.687,1.765
509.954,1.740
510.221,1.720
510.488,1.712
510.755,1.716
511.022,1.722
511.289,1.713
511.556,1.693
511.823,1.673
512.090,1.669
512.357,1.663
512.624,1.657
512.891,1.642
513.159,1.628
513.426,1.612
513.693,1.601
513.960,1.598
514.228,1.597
514.495,1.593
514.763,1.584
515.030,1.570
515.298,1.557
515.565,1.553
515.833,1.548
516.100,1.537
516.368,1.521
516.636,1.509
516.904,1.511
517.171,1.507
517.439,1.501
517.707,1.488
517.975,1.482
518.243,1.484
518.511,1.485
518.779,1.475
519.047,1.472
519.315,1.471
519.583,1.467
519.851,1.448
520.119,1.435
520.387,1.431
520.656,1.435
520.924,1.440
521.192,1.448
521.461,1.453
521.729,1.457
521.997,1.460
522.266,1.459
522.534,1.456
522.803,1.455
523.071,1.453
523.340,1.442
523.609,1.428
523.877,1.419
524.146,1.420
524.415,1.423
524.684,1.424
524.952,1.419
525.221,1.416
525.490,1.421
525.759,1.427
526.028,1.428
526.297,1.415
526.566,1.408
526.835,1.402
527.104,1.404
527.373,1.409
527.642,1.410
527.912,1.403
528.181,1.394
528.450,1.389
528.719,1.392
528.989,1.402
529.258,1.411
529.528,1.412
529.797,1.404
530.067,1.398
530.336,1.394
530.606,1.386
530.875,1.373
531.145,1.366
531.414,1.370
531.684,1.378
531.954,1.381
532.224,1.376
532.493,1.365
532.763,1.357
533.033,1.356
533.303,1.359
533.573,1.361
533.843,1.355
534.113,1.352
534.383,1.345
534.653,1.346
534.923,1.351
535.193,1.361
535.463,1.376
535.733,1.390
536.004,1.396
536.274,1.391
536.544,1.376
536.814,1.361
537.085,1.352
537.355,1.359
537.626,1.375
537.896,1.387
538.166,1.391
538.437,1.388
538.707,1.381
538.978,1.379
539.249,1.384
539.519,1.390
539.790,1.383
540.061,1.374
540.331,1.377
540.602,1.390
540.873,1.401
541.144,1.403
541.414,1.398
541.685,1.392
541.956,1.386
542.227,1.382
542.498,1.376
542.769,1.374
543.040,1.383
543.311,1.402
543.582,1.418
543.853,1.424
544.124,1.426
544.396,1.427
544.667,1.426
544.938,1.419
545.209,1.395
545.480,1.378
545.752,1.366
546.023,1.372
546.294,1.368
546.566,1.361
546.837,1.352
547.109,1.351
547.380,1.349
547.652,1.345
547.923,1.342
548.195,1.350
548.466,1.366
548.738,1.384
549.009,1.383
549.281,1.372
549.553,1.352
549.824,1.334
550.096,1.318
550.368,1.312
550.640,1.318
550.911,1.334
551.183,1.358
551.455,1.382
551.727,1.394
551.999,1.385
552.271,1.365
552.543,1.349
552.815,1.344
553.087,1.354
553.359,1.367
553.631,1.374
553.903,1.373
554.175,1.373
554.447,1.382
554.719,1.386
554.991,1.387
555.263,1.383
555.535,1.375
555.808,1.364
556.080,1.351
556.352,1.343
556.624,1.336
556.897,1.330
557.169,1.326
557.441,1.326
557.714,1.327
557.986,1.330
558.258,1.329
558.531,1.337
558.803,1.346
559.076,1.355
559.348,1.348
559.621,1.336
559.893,1.330
560.166,1.333
560.438,1.334
560.711,1.327
560.983,1.319
561.256,1.320
561.528,1.330
561.801,1.342
562.074,1.352
562.346,1.361
562.619,1.370
562.892,1.370
563.164,1.362
563.437,1.354
563.710,1.347
563.983,1.338
564.255,1.326
564.528,1.333
564.801,1.352
565.074,1.365
565.346,1.358
565.619,1.347
565.892,1.344
566.165,1.342
566.438,1.331
566.711,1.321
566.984,1.318
567.257,1.321
567.529,1.328
567.802,1.344
568.075,1.356
568.348,1.358
568.621,1.354
568.894,1.348
569.167,1.344
569.440,1.334
569.713,1.320
569.986,1.312
570.259,1.308
570.532,1.315
570.805,1.324
571.078,1.333
571.351,1.342
571.625,1.345
571.898,1.336
572.171,1.323
572.444,1.314
572.717,1.323
572.990,1.333
573.263,1.334
573.536,1.323
573.809,1.311
574.083,1.308
574.356,1.314
574.629,1.328
574.902,1.336
575.175,1.331
575.448,1.316
575.721,1.311
575.995,1.312
576.268,1.318
576.541,1.323
576.814,1.330
577.087,1.337
577.361,1.340
577.634,1.339
577.907,1.327
578.180,1.314
578.453,1.307
578.727,1.313
579.000,1.321
579.273,1.329
579.546,1.342
579.820,1.357
580.093,1.362
580.366,1.355
580.639,1.339
580.913,1.328
581.186,1.321
581.459,1.317
581.732,1.308
582.005,1.304
582.279,1.300
582.552,1.304
582.825,1.306
583.098,1.312
583.372,1.319
583.645,1.326
583.918,1.327
584.191,1.326
584.464,1.321
584.738,1.315
585.011,1.311
585.284,1.309
585.557,1.311
585.831,1.316
586.104,1.330
586.377,1.350
586.650,1.361
586.923,1.358
587.196,1.347
587.470,1.335
587.743,1.330
588.016,1.326
588.289,1.329
588.562,1.337
588.835,1.340
589.109,1.331
589.382,1.316
589.655,1.306
589.928,1.302
590.201,1.304
590.474,1.316
590.747,1.333
591.020,1.345
591.293,1.350
591.567,1.348
591.840,1.341
592.113,1.331
592.386,1.317
592.659,1.310
592.932,1.312
593.205,1.322
593.478,1.327
593.751,1.323
594.024,1.317
594.297,1.310
594.570,1.308
594.843,1.312
595.116,1.321
595.389,1.325
595.662,1.321
595.934,1.320
596.207,1.326
596.480,1.336
596.753,1.345
597.026,1.345
597.299,1.342
597.572,1.335
597.844,1.326
598.117,1.318
598.390,1.314
598.663,1.314
598.936,1.315
599.208,1.316
599.481,1.320
599.754,1.321
600.026,1.312
600.299,1.301
600.572,1.298
600.844,1.301
601.117,1.298
601.390,1.295
601.662,1.296
601.935,1.298
602.207,1.302
602.480,1.308
602.752,1.309
603.025,1.301
603.297,1.294
603.570,1.299
603.842,1.314
604.115,1.324
604.387,1.327
604.660,1.319
604.932,1.317
605.204,1.322
605.477,1.338
605.749,1.352
606.021,1.359
606.294,1.355
606.566,1.344
606.838,1.339
607.110,1.339
607.383,1.345
607.655,1.345
607.927,1.348
608.199,1.354
608.471,1.358
608.743,1.354
609.015,1.345
609.287,1.341
609.559,1.341
609.831,1.349
610.103,1.354
610.375,1.354
610.647,1.343
610.919,1.328
611.191,1.325
611.463,1.332
611.735,1.339
612.007,1.332
612.278,1.321
612.550,1.314
612.822,1.320
613.094,1.329
613.365,1.333
613.637,1.339
613.909,1.337
614.180,1.336
614.452,1.329
614.723,1.324
614.995,1.319
615.266,1.320
615.538,1.330
615.809,1.340
616.081,1.339
616.352,1.326
616.623,1.314
616.895,1.306
617.166,1.300
617.437,1.299
617.709,1.304
617.980,1.313
618.251,1.321
618.522,1.331
618.793,1.346
619.065,1.361
619.336,1.360
619.607,1.346
619.878,1.336
620.149,1.337
620.420,1.338
620.691,1.336
620.962,1.340
621.232,1.349
621.503,1.344
621.774,1.334
622.045,1.326
622.316,1.334
622.586,1.346
622.857,1.360
623.128,1.361
623.398,1.356
623.669,1.346
623.940,1.334
624.210,1.322
624.481,1.317
624.751,1.318
625.021,1.316
625.292,1.309
625.562,1.304
625.833,1.302
626.103,1.299
626.373,1.293
626.643,1.293
626.914,1.299
627.184,1.312
627.454,1.320
627.724,1.322
627.994,1.318
628.264,1.313
628.534,1.306
628.804,1.305
629.074,1.312
629.344,1.324
629.614,1.323
629.884,1.309
630.154,1.295
630.424,1.284
630.693,1.278
630.963,1.267
631.233,1.261
631.502,1.264
631.772,1.279
632.041,1.296
632.311,1.308
632.581,1.314
632.850,1.312
633.119,1.303
633.389,1.287
633.658,1.281
633.928,1.289
634.197,1.304
634.466,1.316
634.735,1.319
635.004,1.311
635.274,1.301
635.543,1.295
635.812,1.297
636.081,1.300
636.350,1.301
636.619,1.303
636.888,1.306
637.157,1.310
637.426,1.313
637.694,1.312
637.963,1.307
638.232,1.301
638.501,1.294
638.769,1.296
639.038,1.300
639.307,1.313
639.575,1.326
639.844,1.327
640.112,1.322
640.381,1.312
640.649,1.311
640.917,1.313
641.186,1.313
641.454,1.313
641.722,1.311
641.991,1.311
642.259,1.303
642.527,1.297
642.795,1.291
643.063,1.283
643.331,1.275
643.599,1.275
643.867,1.286
644.135,1.297
644.403,1.306
644.671,1.308
644.939,1.311
645.206,1.312
645.474,1.314
645.742,1.307
646.009,1.294
646.277,1.287
646.545,1.291
646.812,1.307
647.080,1.322
647.347,1.331
647.615,1.327
647.882,1.313
648.149,1.298
648.417,1.293
648.684,1.299
648.951,1.312
649.219,1.319
649.486,1.316
649.753,1.306
650.020,1.292
650.287,1.287
650.554,1.289
650.821,1.294
651.088,1.298
651.355,1.304
651.622,1.309
651.889,1.313
652.155,1.306
652.422,1.305
652.689,1.309
652.956,1.313
653.222,1.321
653.489,1.334
653.755,1.343
654.022,1.339
654.288,1.321
654.555,1.310
654.821,1.310
655.088,1.315
655.354,1.322
655.620,1.330
655.887,1.335
656.153,1.339
656.419,1.336
656.685,1.331
656.951,1.325
657.217,1.319
657.483,1.313
657.749,1.309
658.015,1.308
658.281,1.306
658.547,1.300
658.813,1.289
659.079,1.283
659.345,1.281
659.610,1.282
659.876,1.282
660.142,1.283
660.407,1.288
660.673,1.296
660.939,1.304
661.204,1.303
661.470,1.297
661.735,1.293
662.000,1.296
662.266,1.298
662.531,1.298
662.796,1.297
663.062,1.292
663.327,1.284
663.592,1.282
663.857,1.283
664.122,1.285
664.388,1.282
664.653,1.285
664.918,1.291
665.183,1.295
665.448,1.300
665.712,1.309
665.977,1.319
666.242,1.318
666.507,1.298
666.772,1.279
667.037,1.270
667.301,1.277
667.566,1.286
667.831,1.289
668.095,1.289
668.360,1.290
668.624,1.290
668.889,1.295
669.153,1.294
669.418,1.296
669.682,1.295
669.946,1.299
670.211,1.306
670.475,1.312
670.739,1.323
671.004,1.338
671.268,1.368
671.532,1.396
671.796,1.388
672.060,1.363
672.324,1.339
672.588,1.344
672.852,1.358
673.116,1.396
673.380,1.429
673.644,1.410
673.908,1.359
674.172,1.312
674.436,1.310
674.700,1.314
674.963,1.319
675.227,1.321
675.491,1.313
675.754,1.304
676.018,1.298
676.282,1.303
676.545,1.306
676.809,1.301
677.072,1.290
677.336,1.283
677.599,1.284
677.863,1.283
678.126,1.287
678.389,1.298
678.653,1.308
678.916,1.306
679.179,1.291
679.442,1.283
679.706,1.287
679.969,1.295
680.232,1.303
680.495,1.314
680.758,1.321
681.021,1.317
681.284,1.302
681.547,1.290
681.810,1.293
682.073,1.307
682.336,1.317
682.599,1.316
682.862,1.310
683.125,1.308
683.388,1.310
683.651,1.312
683.913,1.310
684.176,1.301
684.439,1.289
684.702,1.279
684.964,1.277
685.227,1.280
685.490,1.289
685.752,1.303
686.015,1.311
686.277,1.312
686.540,1.304
686.802,1.296
687.065,1.296
687.327,1.300
687.590,1.306
687.852,1.300
688.115,1.286
688.377,1.277
688.639,1.274
688.902,1.279
689.164,1.285
689.426,1.297
689.689,1.307
689.951,1.310
690.213,1.309
690.475,1.309
690.737,1.306
691.000,1.298
691.262,1.296
691.524,1.305
691.786,1.319
692.048,1.329
692.310,1.323
692.572,1.304
692.834,1.283
693.096,1.276
693.358,1.287
693.620,1.304
693.882,1.318
694.144,1.322
694.406,1.317
694.668,1.312
694.930,1.304
695.192,1.301
695.453,1.301
695.715,1.304
695.977,1.301
696.239,1.296
696.501,1.296
696.762,1.303
697.024,1.307
697.286,1.301
697.548,1.294
697.809,1.291
698.071,1.291
698.333,1.289
698.594,1.286
698.856,1.291
699.118,1.299
699.379,1.306
699.641,1.312
699.902,1.316
700.164,1.314
700.426,1.309
700.687,1.301
700.949,1.300
701.210,1.298
701.472,1.295
701.733,1.288
701.995,1.289
702.256,1.291
702.518,1.290
702.779,1.287
703.041,1.298
703.302,1.311
703.563,1.313
703.825,1.304
704.086,1.295
704.348,1.292
704.609,1.295
704.871,1.306
705.132,1.320
705.393,1.319
705.655,1.314
705.916,1.312
706.177,1.317
706.439,1.317
706.700,1.315
706.961,1.311
707.223,1.306
707.484,1.290
707.745,1.277
708.007,1.266
708.268,1.260
708.529,1.255
708.790,1.246
709.052,1.245
709.313,1.248
709.574,1.256
709.835,1.258
710.097,1.253
710.358,1.237
710.619,1.225
710.881,1.216
711.142,1.211
711.403,1.207
711.664,1.206
711.926,1.203
712.187,1.208
712.448,1.216
712.709,1.230
712.970,1.241
713.232,1.246
713.493,1.250
713.754,1.246
714.015,1.248
714.277,1.254
714.538,1.265
714.799,1.277
715.060,1.281
715.322,1.277
715.583,1.263
715.844,1.250
716.105,1.237
716.367,1.231
716.628,1.233
716.889,1.237
717.150,1.231
717.411,1.221
717.673,1.220
717.934,1.229
718.195,1.239
718.457,1.234
718.718,1.225
718.979,1.220
719.240,1.224
719.502,1.236
719.763,1.247
720.024,1.253
720.286,1.253
720.547,1.242
720.808,1.232
721.069,1.227
721.331,1.234
721.592,1.244
721.853,1.249
722.115,1.252
722.376,1.255
722.638,1.254
722.899,1.253
723.160,1.247
723.422,1.243
723.683,1.239
723.944,1.240
724.206,1.241
724.467,1.241
724.729,1.239
724.990,1.243
725.252,1.245
725.513,1.237
725.775,1.222
726.036,1.213
726.298,1.215
726.559,1.223
726.821,1.229
727.082,1.236
727.344,1.237
727.605,1.236
727.867,1.230
728.128,1.230
728.390,1.229
728.652,1.239
728.913,1.251
729.175,1.261
729.436,1.263
729.698,1.260
729.960,1.254
730.221,1.245
730.483,1.232
730.745,1.228
731.007,1.228
731.268,1.229
731.530,1.231
731.792,1.236
732.054,1.242
732.315,1.250
732.577,1.253
732.839,1.244
733.101,1.232
733.363,1.224
733.625,1.227
733.887,1.231
734.149,1.233
734.411,1.236
734.673,1.239
734.935,1.242
735.197,1.241
735.459,1.244
735.721,1.246
735.983,1.243
736.245,1.231
736.507,1.229
736.769,1.236
737.031,1.243
737.293,1.240
737.555,1.230
737.818,1.224
738.080,1.218
738.342,1.216
738.604,1.215
738.867,1.215
739.129,1.212
739.391,1.210
739.654,1.211
739.916,1.215
740.178,1.224
740.441,1.235
740.703,1.241
740.966,1.236
741.228,1.228
741.491,1.222
741.753,1.223
742.016,1.223
742.278,1.226
742.541,1.229
742.804,1.233
743.066,1.242
743.329,1.243
743.592,1.239
743.854,1.235
744.117,1.239
744.380,1.246
744.643,1.243
744.905,1.236
745.168,1.230
745.431,1.228
745.694,1.225
745.957,1.222
746.220,1.218
746.483,1.214
746.746,1.215
747.009,1.227
747.272,1.248
747.535,1.264
747.798,1.266
748.061,1.254
748.324,1.238
748.588,1.228
748.851,1.227
749.114,1.229
749.377,1.233
749.641,1.233
749.904,1.240
750.167,1.248
750.431,1.257
750.694,1.263
750.958,1.265
751.221,1.258
751.485,1.244
751.748,1.234
752.012,1.238
752.275,1.254
752.539,1.263
752.803,1.259
753.066,1.246
753.330,1.236
753.594,1.232
753.857,1.232
754.121,1.237
754.385,1.243
754.649,1.248
754.913,1.251
755.177,1.254
755.441,1.250
755.705,1.238
755.969,1.228
756.233,1.230
756.497,1.239
756.761,1.244
757.025,1.241
757.289,1.239
757.553,1.236
757.818,1.239
758.082,1.241
758.346,1.241
758.610,1.242
758.875,1.243
759.139,1.243
759.404,1.239
759.668,1.235
759.932,1.237
760.197,1.244
760.462,1.244
760.726,1.241
760.991,1.239
761.255,1.243
761.520,1.244
761.785,1.237
762.049,1.223
762.314,1.214
762.579,1.220
762.844,1.234
763.109,1.244
763.374,1.244
763.639,1.240
763.903,1.234
764.168,1.228
764.433,1.230
764.699,1.239
764.964,1.245
765.229,1.238
765.494,1.226
765.759,1.219
766.024,1.219
766.290,1.224
766.555,1.236
766.820,1.246
767.086,1.255
767.351,1.254
767.616,1.251
767.882,1.244
768.147,1.242
768.413,1.237
768.678,1.231
768.944,1.227
769.209,1.230
769.475,1.239
769.741,1.247
770.006,1.254
770.272,1.257
770.538,1.255
770.804,1.250
771.070,1.249
771.335,1.256
771.601,1.266
771.867,1.270
772.133,1.266
772.399,1.258
772.665,1.247
772.931,1.248
773.197,1.254
773.464,1.267
773.730,1.276
773.996,1.277
774.262,1.278
774.528,1.275
774.795,1.278
775.061,1.283
775.327,1.283
775.594,1.271
775.860,1.251
776.126,1.232
776.393,1.225
776.659,1.224
776.926,1.224
777.193,1.226
777.459,1.228
777.726,1.228
777.992,1.227
778.259,1.223
778.526,1.229
778.793,1.233
779.059,1.239
779.326,1.244
779.593,1.250
779.860,1.258
780.127,1.259
780.394,1.258
780.661,1.255
780.928,1.248
781.195,1.239
781.462,1.228
781.729,1.226
781.996,1.228
782.263,1.235
782.530,1.244
782.797,1.253
783.064,1.250
783.332,1.244
783.599,1.239
783.866,1.242
784.134,1.242
784.401,1.242
784.668,1.238
784.936,1.234
785.203,1.228
785.470,1.221
785.738,1.217
786.005,1.219
786.273,1.219
786.541,1.219
786.808,1.220
787.076,1.223
787.343,1.226
787.611,1.233
787.879,1.243
788.146,1.251
788.414,1.255
788.682,1.252
788.950,1.253
789.217,1.254
789.485,1.264
789.753,1.265
790.021,1.257
790.289,1.239
790.557,1.225
790.825,1.222
791.093,1.229
791.361,1.243
791.629,1.255
791.897,1.260
792.165,1.257
792.433,1.248
792.701,1.234
792.969,1.222
793.237,1.216
793.505,1.225
793.773,1.236
794.042,1.238
794.310,1.231
794.578,1.225
794.846,1.225
795.115,1.226
795.383,1.232
795.651,1.241
795.920,1.247
796.188,1.248
796.456,1.252
796.725,1.254
796.993,1.260
797.261,1.260
797.530,1.256
797.798,1.245
798.067,1.245
798.335,1.250
798.604,1.247
798.872,1.231
799.141,1.221
799.409,1.222
799.678,1.227
799.946,1.234
800.215,1.236
800.483,1.237
800.752,1.233
801.020,1.227
801.289,1.222
801.558,1.223
801.826,1.230
802.095,1.233
802.363,1.235
802.632,1.233
802.901,1.237
803.169,1.239
803.438,1.237
803.707,1.229
803.976,1.219
804.244,1.216
804.513,1.217
804.782,1.214
805.050,1.212
805.319,1.218
805.588,1.233
805.857,1.245
806.125,1.248
806.394,1.245
806.663,1.234
806.931,1.224
807.200,1.220
807.469,1.222
807.738,1.226
808.006,1.228
808.275,1.233
808.544,1.241
808.813,1.249
809.082,1.249
809.350,1.244
809.619,1.239
809.888,1.235
810.157,1.233
810.425,1.229
810.694,1.229
810.963,1.231
811.232,1.230
811.500,1.223
811.769,1.214
812.038,1.214
812.306,1.225
812.575,1.241
812.844,1.248
813.113,1.247
813.381,1.236
813.650,1.235
813.919,1.240
814.187,1.250
814.456,1.256
814.725,1.258
814.993,1.255
815.262,1.250
815.531,1.247
815.799,1.247
816.068,1.240
816.336,1.228
816.605,1.218
816.873,1.219
817.142,1.229
817.411,1.241
817.679,1.247
817.948,1.257
818.216,1.274
818.485,1.309
818.753,1.331
819.021,1.313
819.290,1.268
819.558,1.232
819.827,1.233
820.095,1.248
820.363,1.256
820.632,1.257
820.900,1.251
821.168,1.252
821.437,1.256
821.705,1.261
821.973,1.262
822.241,1.261
822.509,1.260
822.777,1.252
823.046,1.248
823.314,1.251
823.582,1.260
823.850,1.265
824.118,1.266
824.386,1.260
824.654,1.244
824.922,1.228
825.190,1.219
825.457,1.230
825.725,1.243
825.993,1.243
826.261,1.231
826.529,1.221
826.796,1.217
827.064,1.219
827.332,1.220
827.599,1.228
827.867,1.242
828.134,1.249
828.402,1.242
828.669,1.230
828.937,1.222
829.204,1.235
829.471,1.259
829.739,1.276
830.006,1.280
830.273,1.272
830.540,1.259
830.807,1.241
831.075,1.234
831.342,1.238
831.609,1.244
831.876,1.247
832.142,1.247
832.409,1.250
832.676,1.247
832.943,1.237
833.210,1.227
833.476,1.225
833.743,1.233
834.010,1.236
834.276,1.228
834.543,1.219
834.809,1.223
835.076,1.233
835.342,1.239
835.608,1.247
835.874,1.253
836.141,1.254
836.407,1.246
836.673,1.238
836.939,1.237
837.205,1.234
837.471,1.233
837.737,1.234
838.002,1.238
838.268,1.238
838.534,1.236
838.799,1.232
839.065,1.236
839.330,1.239
839.596,1.242
839.861,1.245
840.127,1.252
840.392,1.257
840.657,1.259
840.922,1.265
841.187,1.272
841.452,1.275
841.717,1.271
841.982,1.261
842.247,1.250
842.511,1.241
842.776,1.243
843.041,1.245
843.305,1.240
843.570,1.231
843.834,1.227
844.098,1.225
844.362,1.223
844.627,1.222
844.891,1.224
845.155,1.230
845.419,1.238
845.682,1.240
845.946,1.240
846.210,1.240
846.474,1.240
846.737,1.243
847.001,1.240
847.264,1.233
847.527,1.228
847.790,1.229
848.054,1.230
848.317,1.221
848.580,1.214
848.843,1.217
849.105,1.233
849.368,1.249
849.631,1.256
849.893,1.260
850.156,1.266
850.418,1.268
850.680,1.256
850.943,1.244
851.205,1.245
851.467,1.250
851.729,1.252
851.991,1.250
852.252,1.257
852.514,1.266
852.776,1.270
853.037,1.270
853.298,1.267
853.560,1.260
853.821,1.246
854.082,1.230
854.343,1.228
854.604,1.244
854.865,1.268
855.126,1.283
855.386,1.290
855.647,1.288
855.907,1.279
856.168,1.262
856.428,1.247
856.688,1.239
856.948,1.227
857.208,1.216
857.468,1.215
857.727,1.225
857.987,1.237
858.247,1.246
858.506,1.260
858.765,1.264
859.024,1.256
859.284,1.238
859.543,1.224
859.801,1.219
860.060,1.220
860.319,1.232
860.577,1.244
860.836,1.250
861.094,1.252
861.352,1.255
861.611,1.254
861.869,1.245
862.127,1.241
862.384,1.247
862.642,1.256
862.900,1.264
863.157,1.265
863.414,1.258
863.672,1.243
863.929,1.226
864.186,1.220
864.443,1.224
864.699,1.230
864.956,1.233
865.212,1.227
865.469,1.226
865.725,1.233
865.981,1.245
866.237,1.248
866.493,1.244
866.749,1.234
867.005,1.229
867.260,1.223
867.516,1.222
867.771,1.221
868.026,1.227
868.282,1.238
868.536,1.247
868.791,1.246
869.046,1.237
869.301,1.227
869.555,1.227
869.809,1.236
870.064,1.244
870.318,1.253
870.572,1.256
870.826,1.247
871.079,1.237
871.333,1.228
871.586,1.230
871.840,1.228
872.093,1.225
872.346,1.229
872.599,1.244
872.852,1.262
873.105,1.271
873.357,1.263
873.610,1.250
873.862,1.246
874.114,1.251
874.366,1.256
874.618,1.251
874.870,1.235
875.121,1.219
875.373,1.214
875.624,1.220
875.876,1.228
876.127,1.231
876.378,1.230
876.629,1.229
876.879,1.234
877.130,1.238
877.381,1.235
877.631,1.222
877.881,1.216
878.131,1.225
878.381,1.245
878.631,1.262
878.881,1.271
879.130,1.267
879.380,1.258
879.629,1.246
879.878,1.236
880.127,1.230
880.376,1.232
880.625,1.243
880.873,1.254
881.122,1.263
881.370,1.264
881.618,1.255
881.866,1.241
882.114,1.230
882.362,1.228
882.610,1.236
882.857,1.239
883.105,1.237
883.352,1.224
883.599,1.213
883.846,1.206
884.093,1.209
884.340,1.220
884.586,1.235
884.833,1.245
885.079,1.246
885.325,1.238
885.571,1.233
885.817,1.234
886.063,1.245
886.309,1.252
886.554,1.256
886.800,1.261
887.045,1.264
887.290,1.255
887.535,1.242
887.780,1.236
888.025,1.244
888.270,1.258
888.514,1.271
888.758,1.273
889.003,1.265
889.247,1.247
889.491,1.242
889.735,1.248
889.978,1.260
890.222,1.259
890.465,1.253
890.709,1.243
890.952,1.235
891.195,1.227
891.438,1.223
891.681,1.220
891.923,1.220
892.166,1.225
892.408,1.228
892.651,1.224
892.893,1.217
893.135,1.218
893.377,1.225
893.619,1.234
893.861,1.239
894.102,1.239
894.344,1.245
894.585,1.260
894.826,1.274
895.067,1.270
895.308,1.254
895.549,1.237
895.790,1.228
896.031,1.224
896.271,1.230
896.512,1.242
896.752,1.251
896.992,1.246
897.232,1.236
897.472,1.230
897.712,1.241
897.952,1.255
898.191,1.259
898.431,1.256
898.670,1.256
898.910,1.259
899.149,1.265
899.388,1.270
899.627,1.274
899.866,1.270
900.105,1.256
900.343,1.248
900.582,1.248
900.820,1.259
901.059,1.277
901.297,1.285
901.535,1.270
901.773,1.248
902.011,1.227
902.249,1.213
902.487,1.206
902.725,1.209
902.963,1.223
903.200,1.228
903.438,1.229
903.675,1.232
903.912,1.244
904.150,1.258
904.387,1.262
904.624,1.248
904.861,1.230
905.098,1.221
905.334,1.228
905.571,1.231
905.808,1.233
906.045,1.238
906.281,1.248
906.518,1.255
906.754,1.259
906.990,1.262
907.227,1.260
907.463,1.251
907.699,1.242
907.935,1.241
908.171,1.248
908.407,1.249
908.643,1.249
908.879,1.247
909.115,1.254
909.350,1.256
909.586,1.258
909.822,1.257
910.057,1.267
910.293,1.289
910.528,1.303
910.764,1.301
910.999,1.290
911.235,1.279
911.470,1.278
911.706,1.270
911.941,1.266
912.176,1.256
912.412,1.246
912.647,1.244
912.882,1.252
913.117,1.257
913.352,1.255
913.588,1.244
913.823,1.240
914.058,1.239
914.293,1.245
914.528,1.244
914.763,1.241
914.999,1.237
915.234,1.237
915.469,1.236
915.704,1.232
915.939,1.224
916.174,1.220
916.409,1.223
916.645,1.237
916.880,1.252
917.115,1.260
917.350,1.257
917.586,1.256
917.821,1.257
918.056,1.266
918.292,1.272
918.527,1.268
918.763,1.255
918.998,1.244
919.234,1.252
919.469,1.267
919.705,1.273
919.940,1.265
920.176,1.255
920.412,1.255
920.648,1.255
920.884,1.251
921.120,1.242
921.356,1.234
921.592,1.228
921.828,1.226
922.065,1.231
922.301,1.244
922.537,1.259
922.774,1.265
923.011,1.255
923.247,1.242
923.484,1.240
923.721,1.250
923.958,1.259
924.195,1.260
924.433,1.255
924.670,1.242
924.908,1.228
925.145,1.227
925.383,1.238
925.621,1.248
925.859,1.254
926.097,1.253
926.335,1.250
926.574,1.250
926.813,1.255
927.051,1.259
927.290,1.261
927.529,1.272
927.769,1.292
928.008,1.300
928.248,1.283
928.487,1.262
928.727,1.254
928.967,1.264
929.208,1.270
929.448,1.264
929.689,1.251
929.930,1.240
930.171,1.234
930.413,1.235
930.654,1.237
930.896,1.236
931.138,1.228
931.380,1.221
931.623,1.225
931.865,1.233
932.108,1.247
932.352,1.254
932.595,1.258
932.839,1.256
933.083,1.252
933.327,1.245
933.571,1.235
933.816,1.235
934.061,1.237
934.307,1.238
934.552,1.233
934.798,1.234
935.045,1.237
935.291,1.241
935.538,1.244
935.785,1.252
936.033,1.258
936.281,1.263
936.529,1.261
936.777,1.258
937.026,1.249
937.275,1.242
937.525,1.231
937.775,1.227
938.025,1.222
938.276,1.224
938.527,1.226
938.778,1.228
939.030,1.230
939.282,1.231
939.535,1.235
939.788,1.241
940.041,1.239
940.295,1.229
940.550,1.227
940.804,1.239
941.059,1.252
941.315,1.250
941.571,1.235
941.828,1.226
942.085,1.223
942.342,1.225
942.600,1.226
942.858,1.228
943.117,1.226
943.377,1.220
943.636,1.213
943.897,1.208
944.158,1.214
944.419,1.225
944.681,1.235
944.944,1.242
945.207,1.248
945.470,1.255
945.734,1.261
945.999,1.271
946.264,1.282
946.530,1.287
946.797,1.284
947.064,1.276
947.331,1.265
947.600,1.250
947.869,1.238
948.138,1.230
948.408,1.228
948.679,1.231
948.950,1.236
949.222,1.234
949.495,1.231
949.768,1.234
950.043,1.245
