Wavelength (nm),Intensity Source #96,,C:/Users/Brend/Desktop/LED Spectras v2/Spectrometer Data.sp,,,Source #96,
379.792,1.866,,2018-06-14 10:02:40,,Integration Time,128 ms,
380.000,1.863,,Analyze Light,,Number of Scans to Average,25,
380.209,1.863,,,,Smoothing,1,
380.418,1.874
380.627,1.888
380.837,1.903
381.048,1.912
381.259,1.916
381.471,1.920
381.683,1.930
381.896,1.941
382.110,1.943
382.324,1.947
382.538,1.959
382.753,1.975
382.969,1.974
383.185,1.969
383.402,1.964
383.619,1.970
383.837,1.983
384.055,2.003
384.274,2.022
384.493,2.028
384.712,2.028
384.932,2.031
385.153,2.037
385.374,2.047
385.596,2.059
385.818,2.081
386.040,2.102
386.263,2.120
386.487,2.124
386.710,2.123
386.935,2.111
387.159,2.107
387.385,2.106
387.610,2.113
387.836,2.118
388.063,2.128
388.289,2.135
388.517,2.144
388.744,2.145
388.972,2.153
389.201,2.158
389.430,2.164
389.659,2.170
389.889,2.181
390.119,2.194
390.349,2.203
390.580,2.209
390.811,2.216
391.042,2.221
391.274,2.229
391.507,2.233
391.739,2.234
391.972,2.234
392.205,2.238
392.439,2.247
392.673,2.261
392.907,2.280
393.142,2.300
393.377,2.313
393.612,2.323
393.848,2.327
394.084,2.333
394.320,2.337
394.557,2.350
394.794,2.359
395.031,2.371
395.269,2.378
395.507,2.395
395.745,2.403
395.983,2.409
396.222,2.414
396.461,2.433
396.700,2.451
396.940,2.464
397.180,2.470
397.420,2.469
397.660,2.465
397.901,2.463
398.142,2.470
398.383,2.477
398.625,2.478
398.866,2.485
399.108,2.503
399.351,2.534
399.593,2.546
399.836,2.553
400.079,2.546
400.322,2.546
400.566,2.541
400.809,2.541
401.053,2.544
401.298,2.552
401.542,2.563
401.787,2.578
402.031,2.593
402.277,2.606
402.522,2.607
402.767,2.608
403.013,2.601
403.259,2.605
403.505,2.613
403.752,2.629
403.998,2.641
404.245,2.658
404.492,2.674
404.739,2.687
404.986,2.690
405.234,2.696
405.482,2.693
405.730,2.690
405.978,2.689
406.226,2.696
406.475,2.700
406.723,2.705
406.972,2.713
407.221,2.725
407.470,2.735
407.720,2.747
407.969,2.750
408.219,2.764
408.469,2.774
408.719,2.787
408.969,2.788
409.219,2.796
409.470,2.806
409.720,2.818
409.971,2.827
410.222,2.846
410.473,2.858
410.724,2.865
410.976,2.865
411.227,2.873
411.479,2.873
411.731,2.876
411.983,2.875
412.235,2.887
412.487,2.896
412.740,2.910
412.992,2.918
413.245,2.929
413.497,2.928
413.750,2.926
414.003,2.918
414.257,2.917
414.510,2.920
414.763,2.933
415.017,2.944
415.270,2.956
415.524,2.959
415.778,2.963
416.032,2.959
416.286,2.968
416.540,2.976
416.794,2.996
417.049,3.002
417.303,3.005
417.558,2.999
417.812,3.000
418.067,3.002
418.322,3.006
418.577,3.001
418.832,3.000
419.088,2.992
419.343,2.993
419.598,2.978
419.854,2.975
420.109,2.971
420.365,2.987
420.621,2.996
420.876,3.005
421.132,3.001
421.388,2.999
421.645,2.992
421.901,2.994
422.157,3.001
422.413,3.016
422.670,3.024
422.926,3.028
423.183,3.020
423.439,3.026
423.696,3.036
423.953,3.068
424.210,3.096
424.467,3.110
424.724,3.105
424.981,3.093
425.238,3.100
425.495,3.125
425.753,3.154
426.010,3.181
426.267,3.200
426.525,3.234
426.782,3.267
427.040,3.308
427.298,3.346
427.555,3.396
427.813,3.436
428.071,3.481
428.329,3.524
428.587,3.578
428.845,3.628
429.103,3.681
429.361,3.731
429.619,3.791
429.878,3.852
430.136,3.927
430.394,4.001
430.653,4.096
430.911,4.203
431.170,4.319
431.428,4.427
431.687,4.542
431.946,4.651
432.204,4.772
432.463,4.896
432.722,5.037
432.981,5.180
433.240,5.341
433.499,5.506
433.758,5.688
434.017,5.859
434.276,6.040
434.535,6.222
434.794,6.419
435.053,6.622
435.312,6.845
435.572,7.077
435.831,7.322
436.090,7.576
436.350,7.849
436.609,8.133
436.869,8.431
437.128,8.730
437.388,9.039
437.647,9.352
437.907,9.693
438.166,10.039
438.426,10.406
438.686,10.775
438.946,11.172
439.205,11.579
439.465,12.008
439.725,12.462
439.985,12.938
440.245,13.417
440.505,13.909
440.765,14.405
441.025,14.912
441.285,15.435
441.545,15.989
441.805,16.562
442.065,17.155
442.325,17.757
442.585,18.410
442.846,19.081
443.106,19.806
443.366,20.541
443.626,21.316
443.887,22.105
444.147,22.940
444.407,23.800
444.668,24.713
444.928,25.657
445.189,26.656
445.449,27.684
445.710,28.765
445.970,29.888
446.231,31.068
446.491,32.307
446.752,33.613
447.012,34.983
447.273,36.416
447.534,37.898
447.794,39.426
448.055,41.004
448.316,42.668
448.577,44.423
448.837,46.262
449.098,48.169
449.359,50.125
449.620,52.097
449.881,54.105
450.142,56.164
450.403,58.310
450.664,60.528
450.924,62.794
451.185,65.106
451.446,67.429
451.707,69.770
451.969,72.109
452.230,74.443
452.491,76.731
452.752,78.946
453.013,81.072
453.274,83.018
453.535,84.705
453.796,86.072
454.058,87.197
454.319,88.140
454.580,88.957
454.841,89.666
455.103,90.286
455.364,90.811
455.625,91.243
455.887,91.585
456.148,91.850
456.409,92.047
456.671,92.172
456.932,92.231
457.194,92.218
457.455,92.145
457.716,92.013
457.978,91.837
458.239,91.610
458.501,91.332
458.763,90.981
459.024,90.550
459.286,90.027
459.547,89.410
459.809,88.689
460.071,87.843
460.332,86.846
460.594,85.645
460.856,84.202
461.117,82.527
461.379,80.691
461.641,78.763
461.903,76.765
462.164,74.741
462.426,72.736
462.688,70.779
462.950,68.837
463.212,66.926
463.474,65.065
463.736,63.274
463.998,61.563
464.260,59.942
464.522,58.419
464.784,56.962
465.046,55.578
465.308,54.269
465.570,53.071
465.832,51.941
466.094,50.890
466.356,49.890
466.618,48.934
466.880,48.012
467.142,47.121
467.405,46.296
467.667,45.522
467.929,44.789
468.191,44.091
468.454,43.410
468.716,42.721
468.978,42.019
469.241,41.305
469.503,40.623
469.765,39.973
470.028,39.339
470.290,38.715
470.552,38.093
470.815,37.474
471.077,36.834
471.340,36.171
471.602,35.509
471.865,34.836
472.128,34.161
472.390,33.480
472.653,32.788
472.915,32.086
473.178,31.375
473.441,30.670
473.703,29.948
473.966,29.214
474.229,28.463
474.492,27.705
474.755,26.937
475.017,26.195
475.280,25.480
475.543,24.799
475.806,24.109
476.069,23.411
476.332,22.711
476.595,22.029
476.858,21.376
477.121,20.728
477.384,20.103
477.647,19.499
477.910,18.919
478.173,18.360
478.436,17.810
478.699,17.291
478.962,16.797
479.226,16.338
479.489,15.886
479.752,15.446
480.015,15.014
480.279,14.606
480.542,14.191
480.805,13.798
481.069,13.422
481.332,13.082
481.595,12.750
481.859,12.448
482.122,12.148
482.386,11.859
482.649,11.562
482.913,11.288
483.177,11.010
483.440,10.740
483.704,10.472
483.967,10.242
484.231,10.026
484.495,9.830
484.759,9.623
485.022,9.408
485.286,9.183
485.550,8.972
485.814,8.757
486.078,8.552
486.342,8.344
486.606,8.163
486.869,7.981
487.133,7.810
487.397,7.632
487.662,7.468
487.926,7.290
488.190,7.115
488.454,6.929
488.718,6.760
488.982,6.581
489.246,6.408
489.511,6.223
489.775,6.047
490.039,5.870
490.304,5.703
490.568,5.534
490.832,5.385
491.097,5.245
491.361,5.121
491.626,4.983
491.890,4.846
492.155,4.702
492.419,4.575
492.684,4.443
492.949,4.319
493.213,4.198
493.478,4.095
493.743,3.988
494.008,3.873
494.272,3.755
494.537,3.662
494.802,3.577
495.067,3.501
495.332,3.422
495.597,3.353
495.862,3.281
496.127,3.213
496.392,3.128
496.657,3.040
496.922,2.950
497.187,2.883
497.452,2.829
497.718,2.791
497.983,2.746
498.248,2.699
498.513,2.642
498.779,2.599
499.044,2.562
499.310,2.526
499.575,2.479
499.841,2.438
500.106,2.403
500.372,2.367
500.637,2.335
500.903,2.314
501.168,2.298
501.434,2.277
501.700,2.240
501.966,2.206
502.231,2.168
502.497,2.137
502.763,2.102
503.029,2.074
503.295,2.052
503.561,2.033
503.827,2.020
504.093,2.007
504.359,1.995
504.625,1.981
504.891,1.962
505.157,1.946
505.423,1.925
505.690,1.904
505.956,1.882
506.222,1.872
506.489,1.875
506.755,1.879
507.021,1.875
507.288,1.866
507.554,1.852
507.821,1.838
508.087,1.822
508.354,1.817
508.621,1.812
508.887,1.803
509.154,1.789
509.421,1.773
509.687,1.753
509.954,1.736
510.221,1.724
510.488,1.726
510.755,1.726
511.022,1.723
511.289,1.706
511.556,1.688
511.823,1.677
512.090,1.682
512.357,1.682
512.624,1.676
512.891,1.661
513.159,1.646
513.426,1.631
513.693,1.623
513.960,1.621
514.228,1.622
514.495,1.621
514.763,1.620
515.030,1.614
515.298,1.606
515.565,1.600
515.833,1.593
516.100,1.589
516.368,1.583
516.636,1.573
516.904,1.565
517.171,1.556
517.439,1.558
517.707,1.558
517.975,1.557
518.243,1.557
518.511,1.555
518.779,1.543
519.047,1.534
519.315,1.529
519.583,1.527
519.851,1.516
520.119,1.508
520.387,1.508
520.656,1.513
520.924,1.517
521.192,1.522
521.461,1.519
521.729,1.518
521.997,1.517
522.266,1.517
522.534,1.510
522.803,1.507
523.071,1.501
523.340,1.496
523.609,1.486
523.877,1.477
524.146,1.471
524.415,1.471
524.684,1.474
524.952,1.474
525.221,1.471
525.490,1.473
525.759,1.478
526.028,1.477
526.297,1.464
526.566,1.450
526.835,1.441
527.104,1.443
527.373,1.448
527.642,1.449
527.912,1.443
528.181,1.439
528.450,1.436
528.719,1.441
528.989,1.451
529.258,1.462
529.528,1.465
529.797,1.460
530.067,1.458
530.336,1.459
530.606,1.462
530.875,1.457
531.145,1.451
531.414,1.448
531.684,1.450
531.954,1.451
532.224,1.443
532.493,1.427
532.763,1.414
533.033,1.413
533.303,1.422
533.573,1.429
533.843,1.425
534.113,1.420
534.383,1.415
534.653,1.417
534.923,1.420
535.193,1.427
535.463,1.435
535.733,1.441
536.004,1.445
536.274,1.441
536.544,1.432
536.814,1.419
537.085,1.411
537.355,1.418
537.626,1.429
537.896,1.439
538.166,1.440
538.437,1.436
538.707,1.432
538.978,1.433
539.249,1.439
539.519,1.442
539.790,1.435
540.061,1.432
540.331,1.439
540.602,1.454
540.873,1.461
541.144,1.462
541.414,1.458
541.685,1.455
541.956,1.450
542.227,1.444
542.498,1.436
542.769,1.429
543.040,1.431
543.311,1.443
543.582,1.458
543.853,1.466
544.124,1.470
544.396,1.471
544.667,1.474
544.938,1.469
545.209,1.448
545.480,1.429
545.752,1.419
546.023,1.427
546.294,1.427
546.566,1.423
546.837,1.414
547.109,1.413
547.380,1.415
547.652,1.415
547.923,1.410
548.195,1.409
548.466,1.418
548.738,1.432
549.009,1.434
549.281,1.426
549.553,1.411
549.824,1.398
550.096,1.391
550.368,1.391
550.640,1.390
550.911,1.394
551.183,1.406
551.455,1.429
551.727,1.443
551.999,1.438
552.271,1.424
552.543,1.410
552.815,1.404
553.087,1.406
553.359,1.413
553.631,1.418
553.903,1.417
554.175,1.415
554.447,1.414
554.719,1.416
554.991,1.415
555.263,1.412
555.535,1.407
555.808,1.400
556.080,1.394
556.352,1.391
556.624,1.390
556.897,1.389
557.169,1.389
557.441,1.386
557.714,1.383
557.986,1.384
558.258,1.386
558.531,1.397
558.803,1.401
559.076,1.406
559.348,1.398
559.621,1.391
559.893,1.390
560.166,1.393
560.438,1.396
560.711,1.394
560.983,1.389
561.256,1.386
561.528,1.386
561.801,1.393
562.074,1.401
562.346,1.410
562.619,1.417
562.892,1.416
563.164,1.410
563.437,1.407
563.710,1.406
563.983,1.399
564.255,1.390
564.528,1.394
564.801,1.406
565.074,1.410
565.346,1.400
565.619,1.392
565.892,1.393
566.165,1.395
566.438,1.390
566.711,1.382
566.984,1.381
567.257,1.384
567.529,1.391
567.802,1.401
568.075,1.408
568.348,1.405
568.621,1.399
568.894,1.393
569.167,1.390
569.440,1.381
569.713,1.372
569.986,1.369
570.259,1.371
570.532,1.382
570.805,1.391
571.078,1.391
571.351,1.390
571.625,1.387
571.898,1.384
572.171,1.376
572.444,1.370
572.717,1.377
572.990,1.387
573.263,1.388
573.536,1.377
573.809,1.359
574.083,1.349
574.356,1.350
574.629,1.362
574.902,1.372
575.175,1.373
575.448,1.364
575.721,1.360
575.995,1.362
576.268,1.367
576.541,1.377
576.814,1.388
577.087,1.397
577.361,1.399
577.634,1.394
577.907,1.382
578.180,1.368
578.453,1.361
578.727,1.364
579.000,1.371
579.273,1.381
579.546,1.393
579.820,1.405
580.093,1.402
580.366,1.388
580.639,1.370
580.913,1.361
581.186,1.359
581.459,1.358
581.732,1.354
582.005,1.353
582.279,1.349
582.552,1.350
582.825,1.351
583.098,1.356
583.372,1.359
583.645,1.364
583.918,1.370
584.191,1.375
584.464,1.375
584.738,1.371
585.011,1.367
585.284,1.362
585.557,1.360
585.831,1.368
586.104,1.383
586.377,1.401
586.650,1.405
586.923,1.400
587.196,1.390
587.470,1.379
587.743,1.369
588.016,1.359
588.289,1.361
588.562,1.371
588.835,1.378
589.109,1.373
589.382,1.363
589.655,1.355
589.928,1.353
590.201,1.354
590.474,1.362
590.747,1.371
591.020,1.380
591.293,1.385
591.567,1.385
591.840,1.377
592.113,1.363
592.386,1.350
592.659,1.342
592.932,1.343
593.205,1.353
593.478,1.361
593.751,1.360
594.024,1.356
594.297,1.352
594.570,1.352
594.843,1.356
595.116,1.360
595.389,1.362
595.662,1.357
595.934,1.354
596.207,1.356
596.480,1.361
596.753,1.366
597.026,1.366
597.299,1.366
597.572,1.362
597.844,1.356
598.117,1.345
598.390,1.339
598.663,1.340
598.936,1.348
599.208,1.354
599.481,1.361
599.754,1.365
600.026,1.358
600.299,1.346
600.572,1.337
600.844,1.333
601.117,1.327
601.390,1.323
601.662,1.325
601.935,1.328
602.207,1.333
602.480,1.339
602.752,1.342
603.025,1.336
603.297,1.331
603.570,1.335
603.842,1.350
604.115,1.361
604.387,1.368
604.660,1.363
604.932,1.360
605.204,1.362
605.477,1.367
605.749,1.374
606.021,1.382
606.294,1.391
606.566,1.387
606.838,1.384
607.110,1.383
607.383,1.390
607.655,1.393
607.927,1.397
608.199,1.401
608.471,1.403
608.743,1.397
609.015,1.389
609.287,1.380
609.559,1.374
609.831,1.375
610.103,1.380
610.375,1.382
610.647,1.378
610.919,1.373
611.191,1.372
611.463,1.372
611.735,1.370
612.007,1.360
612.278,1.352
612.550,1.349
612.822,1.357
613.094,1.365
613.365,1.372
613.637,1.379
613.909,1.382
614.180,1.382
614.452,1.375
614.723,1.364
614.995,1.354
615.266,1.352
615.538,1.360
615.809,1.370
616.081,1.367
616.352,1.361
616.623,1.358
616.895,1.359
617.166,1.355
617.437,1.350
617.709,1.353
617.980,1.359
618.251,1.368
618.522,1.373
618.793,1.384
619.065,1.396
619.336,1.394
619.607,1.382
619.878,1.371
620.149,1.377
620.420,1.382
620.691,1.381
620.962,1.374
621.232,1.370
621.503,1.362
621.774,1.358
622.045,1.361
622.316,1.372
622.586,1.380
622.857,1.386
623.128,1.383
623.398,1.380
623.669,1.373
623.940,1.368
624.210,1.363
624.481,1.365
624.751,1.369
625.021,1.365
625.292,1.356
625.562,1.352
625.833,1.353
626.103,1.350
626.373,1.343
626.643,1.338
626.914,1.341
627.184,1.348
627.454,1.353
627.724,1.354
627.994,1.358
628.264,1.363
628.534,1.361
628.804,1.355
629.074,1.356
629.344,1.363
629.614,1.368
629.884,1.364
630.154,1.354
630.424,1.342
630.693,1.330
630.963,1.317
631.233,1.309
631.502,1.310
631.772,1.322
632.041,1.338
632.311,1.348
632.581,1.349
632.850,1.344
633.119,1.333
633.389,1.321
633.658,1.314
633.928,1.316
634.197,1.321
634.466,1.335
634.735,1.345
635.004,1.346
635.274,1.339
635.543,1.330
635.812,1.333
636.081,1.335
636.350,1.336
636.619,1.340
636.888,1.344
637.157,1.349
637.426,1.351
637.694,1.351
637.963,1.351
638.232,1.348
638.501,1.345
638.769,1.344
639.038,1.346
639.307,1.351
639.575,1.356
639.844,1.353
640.112,1.349
640.381,1.344
640.649,1.347
640.917,1.356
641.186,1.362
641.454,1.363
641.722,1.358
641.991,1.352
642.259,1.341
642.527,1.334
642.795,1.331
643.063,1.328
643.331,1.327
643.599,1.329
643.867,1.335
644.135,1.339
644.403,1.343
644.671,1.345
644.939,1.352
645.206,1.356
645.474,1.358
645.742,1.348
646.009,1.335
646.277,1.328
646.545,1.332
646.812,1.344
647.080,1.353
647.347,1.358
647.615,1.354
647.882,1.341
648.149,1.330
648.417,1.325
648.684,1.330
648.951,1.340
649.219,1.348
649.486,1.349
649.753,1.340
650.020,1.330
650.287,1.321
650.554,1.320
650.821,1.321
651.088,1.325
651.355,1.333
651.622,1.335
651.889,1.334
652.155,1.327
652.422,1.331
652.689,1.340
652.956,1.351
653.222,1.359
653.489,1.368
653.755,1.369
654.022,1.358
654.288,1.340
654.555,1.330
654.821,1.333
655.088,1.342
655.354,1.352
655.620,1.356
655.887,1.360
656.153,1.362
656.419,1.362
656.685,1.358
656.951,1.353
657.217,1.349
657.483,1.346
657.749,1.344
658.015,1.343
658.281,1.341
658.547,1.336
658.813,1.329
659.079,1.323
659.345,1.320
659.610,1.324
659.876,1.328
660.142,1.332
660.407,1.332
660.673,1.334
660.939,1.335
661.204,1.328
661.470,1.322
661.735,1.319
662.000,1.321
662.266,1.322
662.531,1.322
662.796,1.323
663.062,1.320
663.327,1.314
663.592,1.310
663.857,1.313
664.122,1.321
664.388,1.326
664.653,1.333
664.918,1.336
665.183,1.335
665.448,1.330
665.712,1.329
665.977,1.335
666.242,1.336
666.507,1.326
666.772,1.313
667.037,1.305
667.301,1.306
667.566,1.311
667.831,1.317
668.095,1.323
668.360,1.327
668.624,1.326
668.889,1.328
669.153,1.326
669.418,1.327
669.682,1.324
669.946,1.327
670.211,1.334
670.475,1.344
670.739,1.355
671.004,1.368
671.268,1.389
671.532,1.409
671.796,1.401
672.060,1.379
672.324,1.357
672.588,1.360
672.852,1.375
673.116,1.407
673.380,1.431
673.644,1.411
673.908,1.370
674.172,1.335
674.436,1.335
674.700,1.340
674.963,1.347
675.227,1.350
675.491,1.349
675.754,1.345
676.018,1.341
676.282,1.344
676.545,1.347
676.809,1.347
677.072,1.335
677.336,1.325
677.599,1.321
677.863,1.321
678.126,1.324
678.389,1.331
678.653,1.338
678.916,1.338
679.179,1.333
679.442,1.330
679.706,1.334
679.969,1.335
680.232,1.339
680.495,1.346
680.758,1.354
681.021,1.354
681.284,1.342
681.547,1.328
681.810,1.327
682.073,1.337
682.336,1.349
682.599,1.350
682.862,1.344
683.125,1.342
683.388,1.344
683.651,1.347
683.913,1.344
684.176,1.336
684.439,1.327
684.702,1.318
684.964,1.311
685.227,1.311
685.490,1.321
685.752,1.337
686.015,1.344
686.277,1.342
686.540,1.332
686.802,1.322
687.065,1.316
687.327,1.316
687.590,1.317
687.852,1.314
688.115,1.306
688.377,1.305
688.639,1.311
688.902,1.315
689.164,1.318
689.426,1.325
689.689,1.334
689.951,1.338
690.213,1.337
690.475,1.338
690.737,1.335
691.000,1.329
691.262,1.322
691.524,1.327
691.786,1.340
692.048,1.351
692.310,1.345
692.572,1.326
692.834,1.309
693.096,1.311
693.358,1.325
693.620,1.345
693.882,1.359
694.144,1.360
694.406,1.349
694.668,1.336
694.930,1.327
695.192,1.327
695.453,1.330
695.715,1.334
695.977,1.331
696.239,1.321
696.501,1.314
696.762,1.317
697.024,1.321
697.286,1.322
697.548,1.319
697.809,1.318
698.071,1.320
698.333,1.318
698.594,1.316
698.856,1.320
699.118,1.326
699.379,1.334
699.641,1.341
699.902,1.349
700.164,1.349
700.426,1.344
700.687,1.333
700.949,1.330
701.210,1.330
701.472,1.328
701.733,1.325
701.995,1.326
702.256,1.328
702.518,1.327
702.779,1.324
703.041,1.331
703.302,1.340
703.563,1.342
703.825,1.336
704.086,1.332
704.348,1.331
704.609,1.333
704.871,1.336
705.132,1.341
705.393,1.336
705.655,1.331
705.916,1.330
706.177,1.334
706.439,1.335
706.700,1.330
706.961,1.325
707.223,1.319
707.484,1.306
707.745,1.292
708.007,1.278
708.268,1.271
708.529,1.264
708.790,1.255
709.052,1.248
709.313,1.248
709.574,1.248
709.835,1.249
710.097,1.241
710.358,1.229
710.619,1.216
710.881,1.208
711.142,1.205
711.403,1.202
711.664,1.202
711.926,1.200
712.187,1.206
712.448,1.215
712.709,1.225
712.970,1.229
713.232,1.232
713.493,1.237
713.754,1.238
714.015,1.240
714.277,1.240
714.538,1.244
714.799,1.252
715.060,1.257
715.322,1.259
715.583,1.252
715.844,1.246
716.105,1.239
716.367,1.235
716.628,1.235
716.889,1.236
717.150,1.231
717.411,1.227
717.673,1.226
717.934,1.230
718.195,1.231
718.457,1.224
718.718,1.210
718.979,1.200
719.240,1.201
719.502,1.211
719.763,1.225
720.024,1.235
720.286,1.238
720.547,1.230
720.808,1.221
721.069,1.218
721.331,1.223
721.592,1.230
721.853,1.234
722.115,1.235
722.376,1.235
722.638,1.234
722.899,1.231
723.160,1.226
723.422,1.220
723.683,1.214
723.944,1.214
724.206,1.213
724.467,1.213
724.729,1.211
724.990,1.214
725.252,1.217
725.513,1.211
725.775,1.197
726.036,1.188
726.298,1.188
726.559,1.197
726.821,1.202
727.082,1.208
727.344,1.210
727.605,1.211
727.867,1.208
728.128,1.210
728.390,1.208
728.652,1.215
728.913,1.226
729.175,1.234
729.436,1.233
729.698,1.231
729.960,1.232
730.221,1.230
730.483,1.224
730.745,1.218
731.007,1.215
731.268,1.213
731.530,1.211
731.792,1.209
732.054,1.210
732.315,1.215
732.577,1.218
732.839,1.216
733.101,1.209
733.363,1.205
733.625,1.202
733.887,1.204
734.149,1.209
734.411,1.217
734.673,1.220
734.935,1.217
735.197,1.215
735.459,1.221
735.721,1.230
735.983,1.230
736.245,1.220
736.507,1.213
736.769,1.218
737.031,1.226
737.293,1.226
737.555,1.216
737.818,1.210
738.080,1.204
738.342,1.201
738.604,1.197
738.867,1.196
739.129,1.197
739.391,1.197
739.654,1.200
739.916,1.202
740.178,1.208
740.441,1.215
740.703,1.220
740.966,1.216
741.228,1.212
741.491,1.210
741.753,1.216
742.016,1.222
742.278,1.223
742.541,1.222
742.804,1.223
743.066,1.227
743.329,1.229
743.592,1.226
743.854,1.226
744.117,1.230
744.380,1.234
744.643,1.229
744.905,1.221
745.168,1.216
745.431,1.216
745.694,1.213
745.957,1.209
746.220,1.205
746.483,1.202
746.746,1.201
747.009,1.209
747.272,1.225
747.535,1.238
747.798,1.238
748.061,1.226
748.324,1.213
748.588,1.206
748.851,1.204
749.114,1.206
749.377,1.209
749.641,1.212
749.904,1.218
750.167,1.226
750.431,1.230
750.694,1.234
750.958,1.231
751.221,1.222
751.485,1.207
751.748,1.199
752.012,1.207
752.275,1.222
752.539,1.230
752.803,1.228
753.066,1.220
753.330,1.214
753.594,1.214
753.857,1.216
754.121,1.220
754.385,1.225
754.649,1.226
754.913,1.226
755.177,1.222
755.441,1.214
755.705,1.203
755.969,1.195
756.233,1.198
756.497,1.206
756.761,1.209
757.025,1.209
757.289,1.209
757.553,1.212
757.818,1.216
758.082,1.219
758.346,1.219
758.610,1.217
758.875,1.216
759.139,1.216
759.404,1.215
759.668,1.215
759.932,1.217
760.197,1.223
760.462,1.225
760.726,1.223
760.991,1.221
761.255,1.223
761.520,1.225
761.785,1.221
762.049,1.211
762.314,1.202
762.579,1.205
762.844,1.214
763.109,1.220
763.374,1.216
763.639,1.209
763.903,1.205
764.168,1.201
764.433,1.205
764.699,1.212
764.964,1.217
765.229,1.214
765.494,1.207
765.759,1.205
766.024,1.204
766.290,1.208
766.555,1.216
766.820,1.225
767.086,1.228
767.351,1.226
767.616,1.219
767.882,1.211
768.147,1.204
768.413,1.198
768.678,1.192
768.944,1.193
769.209,1.200
769.475,1.215
769.741,1.228
770.006,1.241
770.272,1.247
770.538,1.243
770.804,1.231
771.070,1.224
771.335,1.227
771.601,1.236
771.867,1.240
772.133,1.236
772.399,1.226
772.665,1.212
772.931,1.209
773.197,1.214
773.464,1.228
773.730,1.236
773.996,1.237
774.262,1.234
774.528,1.233
774.795,1.238
775.061,1.245
775.327,1.247
775.594,1.239
775.860,1.229
776.126,1.216
776.393,1.208
776.659,1.203
776.926,1.202
777.193,1.208
777.459,1.211
777.726,1.210
777.992,1.202
778.259,1.195
778.526,1.196
778.793,1.200
779.059,1.207
779.326,1.214
779.593,1.221
779.860,1.226
780.127,1.226
780.394,1.225
780.661,1.223
780.928,1.221
781.195,1.216
781.462,1.209
781.729,1.208
781.996,1.214
782.263,1.219
782.530,1.228
782.797,1.231
783.064,1.229
783.332,1.219
783.599,1.214
783.866,1.216
784.134,1.218
784.401,1.217
784.668,1.215
784.936,1.213
785.203,1.209
785.470,1.204
785.738,1.203
786.005,1.205
786.273,1.201
786.541,1.193
786.808,1.190
787.076,1.196
787.343,1.203
787.611,1.213
787.879,1.221
788.146,1.226
788.414,1.228
788.682,1.223
788.950,1.221
789.217,1.223
789.485,1.234
789.753,1.240
790.021,1.232
790.289,1.215
790.557,1.200
790.825,1.196
791.093,1.205
791.361,1.221
791.629,1.236
791.897,1.243
792.165,1.240
792.433,1.228
792.701,1.211
792.969,1.197
793.237,1.193
793.505,1.202
793.773,1.215
794.042,1.217
794.310,1.213
794.578,1.206
794.846,1.204
795.115,1.205
795.383,1.208
795.651,1.216
795.920,1.217
796.188,1.216
796.456,1.216
796.725,1.220
796.993,1.228
797.261,1.229
797.530,1.226
797.798,1.220
798.067,1.221
798.335,1.230
798.604,1.232
798.872,1.225
799.141,1.214
799.409,1.206
799.678,1.205
799.946,1.209
800.215,1.214
800.483,1.215
800.752,1.214
801.020,1.209
801.289,1.204
801.558,1.202
801.826,1.204
802.095,1.205
802.363,1.206
802.632,1.209
802.901,1.215
803.169,1.216
803.438,1.214
803.707,1.207
803.976,1.199
804.244,1.200
804.513,1.206
804.782,1.207
805.050,1.208
805.319,1.214
805.588,1.228
805.857,1.235
806.125,1.234
806.394,1.226
806.663,1.212
806.931,1.199
807.200,1.192
807.469,1.191
807.738,1.192
808.006,1.193
808.275,1.200
808.544,1.213
808.813,1.224
809.082,1.227
809.350,1.222
809.619,1.221
809.888,1.220
810.157,1.217
810.425,1.211
810.694,1.207
810.963,1.208
811.232,1.206
811.500,1.200
811.769,1.193
812.038,1.196
812.306,1.203
812.575,1.210
812.844,1.214
813.113,1.215
813.381,1.212
813.650,1.212
813.919,1.217
814.187,1.228
814.456,1.236
814.725,1.236
814.993,1.231
815.262,1.226
815.531,1.221
815.799,1.217
816.068,1.211
816.336,1.205
816.605,1.204
816.873,1.209
817.142,1.216
817.411,1.222
817.679,1.226
817.948,1.233
818.216,1.246
818.485,1.268
818.753,1.282
819.021,1.266
819.290,1.233
819.558,1.210
819.827,1.212
820.095,1.219
820.363,1.221
820.632,1.221
820.900,1.221
821.168,1.224
821.437,1.228
821.705,1.232
821.973,1.232
822.241,1.230
822.509,1.228
822.777,1.224
823.046,1.223
823.314,1.226
823.582,1.229
823.850,1.229
824.118,1.228
824.386,1.225
824.654,1.214
824.922,1.202
825.190,1.195
825.457,1.204
825.725,1.212
825.993,1.212
826.261,1.205
826.529,1.202
826.796,1.203
827.064,1.203
827.332,1.200
827.599,1.205
827.867,1.217
828.134,1.225
828.402,1.221
828.669,1.209
828.937,1.203
829.204,1.213
829.471,1.233
829.739,1.244
830.006,1.242
830.273,1.232
830.540,1.224
830.807,1.212
831.075,1.210
831.342,1.216
831.609,1.223
831.876,1.227
832.142,1.227
832.409,1.230
832.676,1.226
832.943,1.219
833.210,1.211
833.476,1.208
833.743,1.212
834.010,1.218
834.276,1.216
834.543,1.209
834.809,1.208
835.076,1.211
835.342,1.212
835.608,1.214
835.874,1.214
836.141,1.214
836.407,1.211
836.673,1.207
836.939,1.207
837.205,1.207
837.471,1.208
837.737,1.207
838.002,1.202
838.268,1.198
838.534,1.198
838.799,1.204
839.065,1.214
839.330,1.219
839.596,1.220
839.861,1.221
840.127,1.225
840.392,1.226
840.657,1.227
840.922,1.233
841.187,1.240
841.452,1.244
841.717,1.246
841.982,1.243
842.247,1.235
842.511,1.223
842.776,1.218
843.041,1.220
843.305,1.217
843.570,1.212
843.834,1.205
844.098,1.206
844.362,1.211
844.627,1.213
844.891,1.215
845.155,1.216
845.419,1.220
845.682,1.221
845.946,1.222
846.210,1.225
846.474,1.227
846.737,1.230
847.001,1.226
847.264,1.219
847.527,1.211
847.790,1.207
848.054,1.208
848.317,1.207
848.580,1.204
848.843,1.207
849.105,1.218
849.368,1.229
849.631,1.234
849.893,1.237
850.156,1.245
850.418,1.249
850.680,1.238
850.943,1.229
851.205,1.227
851.467,1.229
851.729,1.223
851.991,1.218
852.252,1.222
852.514,1.231
852.776,1.237
853.037,1.242
853.298,1.240
853.560,1.233
853.821,1.216
854.082,1.204
854.343,1.205
854.604,1.222
854.865,1.243
855.126,1.254
855.386,1.257
855.647,1.253
855.907,1.246
856.168,1.232
856.428,1.221
856.688,1.212
856.948,1.202
857.208,1.193
857.468,1.194
857.727,1.203
857.987,1.212
858.247,1.217
858.506,1.225
858.765,1.227
859.024,1.220
859.284,1.212
859.543,1.203
859.801,1.201
860.060,1.202
860.319,1.213
860.577,1.224
860.836,1.229
861.094,1.232
861.352,1.233
861.611,1.229
861.869,1.219
862.127,1.213
862.384,1.216
862.642,1.222
862.900,1.230
863.157,1.232
863.414,1.227
863.672,1.214
863.929,1.199
864.186,1.198
864.443,1.206
864.699,1.217
864.956,1.222
865.212,1.218
865.469,1.213
865.725,1.216
865.981,1.227
866.237,1.234
866.493,1.232
866.749,1.223
867.005,1.219
867.260,1.214
867.516,1.212
867.771,1.206
868.026,1.205
868.282,1.210
868.536,1.212
868.791,1.210
869.046,1.201
869.301,1.194
869.555,1.194
869.809,1.207
870.064,1.219
870.318,1.231
870.572,1.237
870.826,1.231
871.079,1.223
871.333,1.216
871.586,1.220
871.840,1.220
872.093,1.218
872.346,1.221
872.599,1.232
872.852,1.247
873.105,1.255
873.357,1.249
873.610,1.236
873.862,1.230
874.114,1.233
874.366,1.238
874.618,1.234
874.870,1.221
875.121,1.209
875.373,1.207
875.624,1.212
875.876,1.216
876.127,1.216
876.378,1.215
876.629,1.211
876.879,1.213
877.130,1.215
877.381,1.213
877.631,1.206
877.881,1.201
878.131,1.210
878.381,1.226
878.631,1.242
878.881,1.248
879.130,1.245
879.380,1.236
879.629,1.228
879.878,1.221
880.127,1.218
880.376,1.220
880.625,1.225
880.873,1.230
881.122,1.239
881.370,1.242
881.618,1.238
881.866,1.228
882.114,1.218
882.362,1.216
882.610,1.219
882.857,1.221
883.105,1.220
883.352,1.210
883.599,1.202
883.846,1.194
884.093,1.197
884.340,1.205
884.586,1.218
884.833,1.225
885.079,1.227
885.325,1.224
885.571,1.226
885.817,1.228
886.063,1.234
886.309,1.235
886.554,1.240
886.800,1.245
887.045,1.249
887.290,1.238
887.535,1.220
887.780,1.211
888.025,1.218
888.270,1.234
888.514,1.247
888.758,1.249
889.003,1.241
889.247,1.227
889.491,1.224
889.735,1.228
889.978,1.234
890.222,1.230
890.465,1.225
890.709,1.219
890.952,1.213
891.195,1.208
891.438,1.204
891.681,1.198
891.923,1.198
892.166,1.200
892.408,1.203
892.651,1.199
892.893,1.196
893.135,1.200
893.377,1.206
893.619,1.211
893.861,1.216
894.102,1.221
894.344,1.231
894.585,1.245
894.826,1.254
895.067,1.249
895.308,1.240
895.549,1.229
895.790,1.220
896.031,1.212
896.271,1.215
896.512,1.227
896.752,1.236
896.992,1.232
897.232,1.217
897.472,1.206
897.712,1.211
897.952,1.226
898.191,1.232
898.431,1.230
898.670,1.233
898.910,1.241
899.149,1.251
899.388,1.256
899.627,1.254
899.866,1.245
900.105,1.233
900.343,1.227
900.582,1.226
900.820,1.231
901.059,1.242
901.297,1.249
901.535,1.240
901.773,1.221
902.011,1.204
902.249,1.195
902.487,1.193
902.725,1.194
902.963,1.199
903.200,1.199
903.438,1.200
903.675,1.204
903.912,1.215
904.150,1.226
904.387,1.230
904.624,1.222
904.861,1.211
905.098,1.206
905.334,1.209
905.571,1.205
905.808,1.205
906.045,1.212
906.281,1.221
906.518,1.228
906.754,1.228
906.990,1.228
907.227,1.221
907.463,1.212
907.699,1.209
907.935,1.214
908.171,1.220
908.407,1.217
908.643,1.215
908.879,1.216
909.115,1.224
909.350,1.228
909.586,1.228
909.822,1.229
910.057,1.239
910.293,1.255
910.528,1.266
910.764,1.264
910.999,1.260
911.235,1.252
911.470,1.250
911.706,1.243
911.941,1.241
912.176,1.233
912.412,1.224
912.647,1.222
912.882,1.233
913.117,1.239
913.352,1.236
913.588,1.226
913.823,1.221
914.058,1.222
914.293,1.225
914.528,1.218
914.763,1.207
914.999,1.199
915.234,1.200
915.469,1.208
915.704,1.213
915.939,1.214
916.174,1.211
916.409,1.211
916.645,1.219
916.880,1.229
917.115,1.235
917.350,1.231
917.586,1.226
917.821,1.222
918.056,1.226
918.292,1.232
918.527,1.234
918.763,1.231
918.998,1.227
919.234,1.233
919.469,1.240
919.705,1.241
919.940,1.235
920.176,1.232
920.412,1.234
920.648,1.230
920.884,1.223
921.120,1.213
921.356,1.209
921.592,1.206
921.828,1.208
922.065,1.212
922.301,1.222
922.537,1.233
922.774,1.239
923.011,1.233
923.247,1.221
923.484,1.219
923.721,1.228
923.958,1.238
924.195,1.240
924.433,1.234
924.670,1.224
924.908,1.214
925.145,1.211
925.383,1.217
925.621,1.224
925.859,1.230
926.097,1.232
926.335,1.231
926.574,1.230
926.813,1.230
927.051,1.232
927.290,1.235
927.529,1.245
927.769,1.257
928.008,1.261
928.248,1.248
928.487,1.233
928.727,1.230
928.967,1.242
929.208,1.252
929.448,1.249
929.689,1.238
929.930,1.226
930.171,1.216
930.413,1.212
930.654,1.211
930.896,1.209
931.138,1.202
931.380,1.196
931.623,1.200
931.865,1.210
932.108,1.223
932.352,1.232
932.595,1.237
932.839,1.239
933.083,1.235
933.327,1.226
933.571,1.218
933.816,1.220
934.061,1.226
934.307,1.228
934.552,1.220
934.798,1.214
935.045,1.215
935.291,1.221
935.538,1.222
935.785,1.223
936.033,1.226
936.281,1.230
936.529,1.233
936.777,1.231
937.026,1.225
937.275,1.218
937.525,1.212
937.775,1.207
938.025,1.204
938.276,1.205
938.527,1.207
938.778,1.207
939.030,1.204
939.282,1.202
939.535,1.206
939.788,1.217
940.041,1.220
940.295,1.218
940.550,1.216
940.804,1.223
941.059,1.227
941.315,1.221
941.571,1.209
941.828,1.204
942.085,1.206
942.342,1.209
942.600,1.208
942.858,1.203
943.117,1.200
943.377,1.199
943.636,1.197
943.897,1.197
944.158,1.200
944.419,1.206
944.681,1.209
944.944,1.212
945.207,1.215
945.470,1.221
945.734,1.230
945.999,1.244
946.264,1.257
946.530,1.258
946.797,1.249
947.064,1.239
947.331,1.232
947.600,1.223
947.869,1.212
948.138,1.204
948.408,1.202
948.679,1.209
948.950,1.215
949.222,1.216
949.495,1.212
949.768,1.212
950.043,1.221
