Wavelength (nm),Intensity Source #74,,C:/Users/Brend/Desktop/LED Spectras v2/Spectrometer Data.sp,,,Source #74,
379.792,1.770,,2018-06-14 09:22:15,,Integration Time,154 ms,
380.000,1.773,,Analyze Light,,Number of Scans to Average,25,
380.209,1.773,,,,Smoothing,1,
380.418,1.781
380.627,1.791
380.837,1.801
381.048,1.810
381.259,1.812
381.471,1.814
381.683,1.818
381.896,1.830
382.110,1.837
382.324,1.849
382.538,1.865
382.753,1.881
382.969,1.883
383.185,1.878
383.402,1.876
383.619,1.884
383.837,1.896
384.055,1.915
384.274,1.937
384.493,1.954
384.712,1.963
384.932,1.972
385.153,1.979
385.374,1.986
385.596,1.994
385.818,2.014
386.040,2.033
386.263,2.050
386.487,2.055
386.710,2.059
386.935,2.054
387.159,2.054
387.385,2.053
387.610,2.058
387.836,2.066
388.063,2.080
388.289,2.091
388.517,2.099
388.744,2.099
388.972,2.108
389.201,2.114
389.430,2.127
389.659,2.138
389.889,2.153
390.119,2.161
390.349,2.169
390.580,2.176
390.811,2.186
391.042,2.191
391.274,2.198
391.507,2.208
391.739,2.217
391.972,2.218
392.205,2.221
392.439,2.230
392.673,2.244
392.907,2.261
393.142,2.278
393.377,2.293
393.612,2.306
393.848,2.312
394.084,2.322
394.320,2.331
394.557,2.348
394.794,2.361
395.031,2.376
395.269,2.386
395.507,2.397
395.745,2.399
395.983,2.407
396.222,2.415
396.461,2.435
396.700,2.454
396.940,2.468
397.180,2.472
397.420,2.473
397.660,2.473
397.901,2.475
398.142,2.481
398.383,2.486
398.625,2.489
398.866,2.497
399.108,2.520
399.351,2.552
399.593,2.560
399.836,2.559
400.079,2.549
400.322,2.552
400.566,2.551
400.809,2.556
401.053,2.564
401.298,2.576
401.542,2.589
401.787,2.606
402.031,2.620
402.277,2.635
402.522,2.641
402.767,2.649
403.013,2.646
403.259,2.649
403.505,2.652
403.752,2.660
403.998,2.667
404.245,2.681
404.492,2.695
404.739,2.707
404.986,2.716
405.234,2.733
405.482,2.748
405.730,2.756
405.978,2.760
406.226,2.762
406.475,2.759
406.723,2.759
406.972,2.770
407.221,2.789
407.470,2.801
407.720,2.811
407.969,2.808
408.219,2.816
408.469,2.825
408.719,2.838
408.969,2.842
409.219,2.854
409.470,2.868
409.720,2.888
409.971,2.901
410.222,2.917
410.473,2.923
410.724,2.926
410.976,2.925
411.227,2.936
411.479,2.942
411.731,2.951
411.983,2.951
412.235,2.961
412.487,2.966
412.740,2.977
412.992,2.977
413.245,2.984
413.497,2.982
413.750,2.988
414.003,2.986
414.257,2.990
414.510,2.990
414.763,3.002
415.017,3.011
415.270,3.022
415.524,3.022
415.778,3.027
416.032,3.028
416.286,3.041
416.540,3.046
416.794,3.052
417.049,3.047
417.303,3.050
417.558,3.057
417.812,3.065
418.067,3.065
418.322,3.061
418.577,3.053
418.832,3.046
419.088,3.034
419.343,3.028
419.598,3.018
419.854,3.018
420.109,3.021
420.365,3.039
420.621,3.042
420.876,3.047
421.132,3.045
421.388,3.048
421.645,3.043
421.901,3.049
422.157,3.053
422.413,3.065
422.670,3.073
422.926,3.090
423.183,3.097
423.439,3.110
423.696,3.126
423.953,3.162
424.210,3.194
424.467,3.214
424.724,3.217
424.981,3.215
425.238,3.224
425.495,3.256
425.753,3.291
426.010,3.330
426.267,3.359
426.525,3.403
426.782,3.442
427.040,3.489
427.298,3.537
427.555,3.603
427.813,3.661
428.071,3.722
428.329,3.777
428.587,3.844
428.845,3.911
429.103,3.989
429.361,4.065
429.619,4.151
429.878,4.237
430.136,4.340
430.394,4.440
430.653,4.568
430.911,4.704
431.170,4.854
431.428,4.984
431.687,5.118
431.946,5.256
432.204,5.412
432.463,5.572
432.722,5.741
432.981,5.910
433.240,6.102
433.499,6.306
433.758,6.533
434.017,6.746
434.276,6.969
434.535,7.189
434.794,7.443
435.053,7.710
435.312,7.996
435.572,8.281
435.831,8.572
436.090,8.873
436.350,9.191
436.609,9.519
436.869,9.862
437.128,10.208
437.388,10.579
437.647,10.968
437.907,11.379
438.166,11.792
438.426,12.220
438.686,12.659
438.946,13.117
439.205,13.596
439.465,14.115
439.725,14.653
439.985,15.214
440.245,15.773
440.505,16.355
440.765,16.942
441.025,17.544
441.285,18.169
441.545,18.818
441.805,19.494
442.065,20.201
442.325,20.936
442.585,21.733
442.846,22.555
443.106,23.428
443.366,24.324
443.626,25.254
443.887,26.225
444.147,27.244
444.407,28.312
444.668,29.429
444.928,30.597
445.189,31.840
445.449,33.131
445.710,34.463
445.970,35.837
446.231,37.283
446.491,38.813
446.752,40.419
447.012,42.078
447.273,43.791
447.534,45.542
447.794,47.349
448.055,49.214
448.316,51.178
448.577,53.225
448.837,55.345
449.098,57.511
449.359,59.692
449.620,61.886
449.881,64.090
450.142,66.312
450.403,68.562
450.664,70.841
450.924,73.156
451.185,75.455
451.446,77.709
451.707,79.879
451.969,81.930
452.230,83.771
452.491,85.335
452.752,86.615
453.013,87.679
453.274,88.597
453.535,89.400
453.796,90.100
454.058,90.691
454.319,91.182
454.580,91.577
454.841,91.884
455.103,92.127
455.364,92.301
455.625,92.419
455.887,92.470
456.148,92.473
456.409,92.425
456.671,92.318
456.932,92.154
457.194,91.934
457.455,91.665
457.716,91.337
457.978,90.930
458.239,90.442
458.501,89.877
458.763,89.221
459.024,88.474
459.286,87.605
459.547,86.593
459.809,85.357
460.071,83.854
460.332,82.118
460.594,80.229
460.856,78.278
461.117,76.306
461.379,74.349
461.641,72.412
461.903,70.504
462.164,68.628
462.426,66.802
462.688,65.032
462.950,63.330
463.212,61.695
463.474,60.116
463.736,58.584
463.998,57.123
464.260,55.756
464.522,54.496
464.784,53.325
465.046,52.225
465.308,51.195
465.570,50.215
465.832,49.296
466.094,48.419
466.356,47.594
466.618,46.803
466.880,46.029
467.142,45.280
467.405,44.547
467.667,43.840
467.929,43.150
468.191,42.475
468.454,41.821
468.716,41.157
468.978,40.460
469.241,39.722
469.503,38.983
469.765,38.278
470.028,37.595
470.290,36.920
470.552,36.232
470.815,35.554
471.077,34.857
471.340,34.164
471.602,33.450
471.865,32.748
472.128,32.024
472.390,31.301
472.653,30.567
472.915,29.843
473.178,29.117
473.441,28.391
473.703,27.661
473.966,26.920
474.229,26.189
474.492,25.464
474.755,24.752
475.017,24.055
475.280,23.369
475.543,22.703
475.806,22.031
476.069,21.379
476.332,20.737
476.595,20.137
476.858,19.554
477.121,18.981
477.384,18.412
477.647,17.867
477.910,17.351
478.173,16.869
478.436,16.401
478.699,15.950
478.962,15.500
479.226,15.080
479.489,14.682
479.752,14.301
480.015,13.920
480.279,13.557
480.542,13.206
480.805,12.878
481.069,12.551
481.332,12.240
481.595,11.943
481.859,11.683
482.122,11.425
482.386,11.158
482.649,10.871
482.913,10.594
483.177,10.327
483.440,10.079
483.704,9.843
483.967,9.636
484.231,9.425
484.495,9.227
484.759,9.018
485.022,8.819
485.286,8.610
485.550,8.401
485.814,8.177
486.078,7.960
486.342,7.747
486.606,7.564
486.869,7.382
487.133,7.207
487.397,7.029
487.662,6.868
487.926,6.703
488.190,6.535
488.454,6.337
488.718,6.150
488.982,5.961
489.246,5.801
489.511,5.638
489.775,5.483
490.039,5.322
490.304,5.164
490.568,5.004
490.832,4.857
491.097,4.713
491.361,4.585
491.626,4.451
491.890,4.326
492.155,4.199
492.419,4.090
492.684,3.971
492.949,3.860
493.213,3.753
493.478,3.669
493.743,3.577
494.008,3.475
494.272,3.363
494.537,3.272
494.802,3.191
495.067,3.119
495.332,3.043
495.597,2.977
495.862,2.908
496.127,2.847
496.392,2.784
496.657,2.727
496.922,2.663
497.187,2.608
497.452,2.560
497.718,2.525
497.983,2.480
498.248,2.434
498.513,2.383
498.779,2.348
499.044,2.317
499.310,2.281
499.575,2.237
499.841,2.201
500.106,2.169
500.372,2.138
500.637,2.107
500.903,2.092
501.168,2.077
501.434,2.052
501.700,2.010
501.966,1.978
502.231,1.950
502.497,1.927
502.763,1.898
503.029,1.873
503.295,1.854
503.561,1.839
503.827,1.826
504.093,1.810
504.359,1.791
504.625,1.774
504.891,1.755
505.157,1.744
505.423,1.725
505.690,1.704
505.956,1.677
506.222,1.664
506.489,1.665
506.755,1.672
507.021,1.673
507.288,1.666
507.554,1.648
507.821,1.629
508.087,1.614
508.354,1.613
508.621,1.606
508.887,1.587
509.154,1.566
509.421,1.553
509.687,1.541
509.954,1.527
510.221,1.510
510.488,1.506
510.755,1.503
511.022,1.502
511.289,1.490
511.556,1.480
511.823,1.473
512.090,1.476
512.357,1.473
512.624,1.470
512.891,1.458
513.159,1.446
513.426,1.434
513.693,1.426
513.960,1.421
514.228,1.420
514.495,1.419
514.763,1.419
515.030,1.408
515.298,1.397
515.565,1.391
515.833,1.391
516.100,1.388
516.368,1.382
516.636,1.378
516.904,1.376
517.171,1.370
517.439,1.363
517.707,1.355
517.975,1.354
518.243,1.355
518.511,1.353
518.779,1.344
519.047,1.341
519.315,1.339
519.583,1.332
519.851,1.318
520.119,1.308
520.387,1.306
520.656,1.310
520.924,1.315
521.192,1.320
521.461,1.320
521.729,1.321
521.997,1.322
522.266,1.326
522.534,1.327
522.803,1.326
523.071,1.319
523.340,1.306
523.609,1.295
523.877,1.291
524.146,1.292
524.415,1.296
524.684,1.296
524.952,1.293
525.221,1.292
525.490,1.300
525.759,1.307
526.028,1.305
526.297,1.288
526.566,1.273
526.835,1.267
527.104,1.270
527.373,1.275
527.642,1.277
527.912,1.272
528.181,1.270
528.450,1.272
528.719,1.280
528.989,1.291
529.258,1.298
529.528,1.297
529.797,1.289
530.067,1.285
530.336,1.282
530.606,1.278
530.875,1.269
531.145,1.265
531.414,1.264
531.684,1.267
531.954,1.265
532.224,1.259
532.493,1.247
532.763,1.242
533.033,1.244
533.303,1.250
533.573,1.253
533.843,1.245
534.113,1.239
534.383,1.234
534.653,1.239
534.923,1.243
535.193,1.247
535.463,1.253
535.733,1.261
536.004,1.270
536.274,1.271
536.544,1.264
536.814,1.251
537.085,1.242
537.355,1.244
537.626,1.256
537.896,1.265
538.166,1.268
538.437,1.266
538.707,1.261
538.978,1.261
539.249,1.266
539.519,1.271
539.790,1.266
540.061,1.264
540.331,1.270
540.602,1.281
540.873,1.286
541.144,1.284
541.414,1.280
541.685,1.279
541.956,1.277
542.227,1.273
542.498,1.266
542.769,1.262
543.040,1.267
543.311,1.278
543.582,1.287
543.853,1.293
544.124,1.296
544.396,1.302
544.667,1.304
544.938,1.298
545.209,1.278
545.480,1.264
545.752,1.256
546.023,1.257
546.294,1.255
546.566,1.249
546.837,1.242
547.109,1.237
547.380,1.233
547.652,1.230
547.923,1.231
548.195,1.240
548.466,1.256
548.738,1.267
549.009,1.266
549.281,1.259
549.553,1.245
549.824,1.229
550.096,1.218
550.368,1.215
550.640,1.217
550.911,1.221
551.183,1.232
551.455,1.250
551.727,1.260
551.999,1.253
552.271,1.236
552.543,1.225
552.815,1.221
553.087,1.225
553.359,1.233
553.631,1.240
553.903,1.243
554.175,1.245
554.447,1.246
554.719,1.245
554.991,1.242
555.263,1.240
555.535,1.237
555.808,1.233
556.080,1.225
556.352,1.218
556.624,1.214
556.897,1.212
557.169,1.212
557.441,1.210
557.714,1.210
557.986,1.210
558.258,1.210
558.531,1.214
558.803,1.219
559.076,1.223
559.348,1.218
559.621,1.212
559.893,1.212
560.166,1.214
560.438,1.213
560.711,1.211
560.983,1.211
561.256,1.216
561.528,1.221
561.801,1.226
562.074,1.227
562.346,1.232
562.619,1.238
562.892,1.236
563.164,1.228
563.437,1.225
563.710,1.220
563.983,1.211
564.255,1.201
564.528,1.207
564.801,1.219
565.074,1.224
565.346,1.218
565.619,1.215
565.892,1.217
566.165,1.214
566.438,1.203
566.711,1.194
566.984,1.193
567.257,1.197
567.529,1.205
567.802,1.218
568.075,1.226
568.348,1.225
568.621,1.223
568.894,1.220
569.167,1.214
569.440,1.204
569.713,1.190
569.986,1.183
570.259,1.180
570.532,1.189
570.805,1.198
571.078,1.205
571.351,1.208
571.625,1.208
571.898,1.205
572.171,1.196
572.444,1.190
572.717,1.192
572.990,1.201
573.263,1.201
573.536,1.195
573.809,1.188
574.083,1.186
574.356,1.193
574.629,1.202
574.902,1.208
575.175,1.202
575.448,1.191
575.721,1.185
575.995,1.183
576.268,1.187
576.541,1.194
576.814,1.202
577.087,1.210
577.361,1.212
577.634,1.210
577.907,1.199
578.180,1.186
578.453,1.181
578.727,1.186
579.000,1.192
579.273,1.196
579.546,1.201
579.820,1.210
580.093,1.211
580.366,1.202
580.639,1.191
580.913,1.190
581.186,1.192
581.459,1.194
581.732,1.185
582.005,1.178
582.279,1.174
582.552,1.177
582.825,1.179
583.098,1.181
583.372,1.184
583.645,1.187
583.918,1.191
584.191,1.192
584.464,1.192
584.738,1.188
585.011,1.186
585.284,1.183
585.557,1.183
585.831,1.189
586.104,1.200
586.377,1.212
586.650,1.218
586.923,1.216
587.196,1.210
587.470,1.201
587.743,1.196
588.016,1.193
588.289,1.195
588.562,1.200
588.835,1.203
589.109,1.198
589.382,1.187
589.655,1.177
589.928,1.172
590.201,1.172
590.474,1.179
590.747,1.190
591.020,1.197
591.293,1.199
591.567,1.195
591.840,1.191
592.113,1.184
592.386,1.177
592.659,1.171
592.932,1.172
593.205,1.178
593.478,1.185
593.751,1.187
594.024,1.187
594.297,1.182
594.570,1.179
594.843,1.178
595.116,1.184
595.389,1.187
595.662,1.185
595.934,1.185
596.207,1.188
596.480,1.195
596.753,1.197
597.026,1.193
597.299,1.191
597.572,1.192
597.844,1.193
598.117,1.186
598.390,1.178
598.663,1.174
598.936,1.177
599.208,1.182
599.481,1.191
599.754,1.196
600.026,1.190
600.299,1.179
600.572,1.169
600.844,1.164
601.117,1.159
601.390,1.158
601.662,1.158
601.935,1.160
602.207,1.164
602.480,1.170
602.752,1.170
603.025,1.164
603.297,1.162
603.570,1.170
603.842,1.183
604.115,1.190
604.387,1.190
604.660,1.184
604.932,1.185
605.204,1.191
605.477,1.203
605.749,1.213
606.021,1.218
606.294,1.218
606.566,1.209
606.838,1.205
607.110,1.206
607.383,1.214
607.655,1.219
607.927,1.225
608.199,1.230
608.471,1.233
608.743,1.227
609.015,1.219
609.287,1.214
609.559,1.219
609.831,1.227
610.103,1.231
610.375,1.228
610.647,1.219
610.919,1.208
611.191,1.203
611.463,1.204
611.735,1.202
612.007,1.193
612.278,1.183
612.550,1.179
612.822,1.183
613.094,1.188
613.365,1.190
613.637,1.193
613.909,1.194
614.180,1.193
614.452,1.185
614.723,1.176
614.995,1.169
615.266,1.169
615.538,1.181
615.809,1.195
616.081,1.198
616.352,1.188
616.623,1.179
616.895,1.176
617.166,1.175
617.437,1.172
617.709,1.169
617.980,1.175
618.251,1.186
618.522,1.195
618.793,1.209
619.065,1.221
619.336,1.219
619.607,1.204
619.878,1.194
620.149,1.199
620.420,1.203
620.691,1.201
620.962,1.200
621.232,1.204
621.503,1.202
621.774,1.197
622.045,1.194
622.316,1.200
622.586,1.206
622.857,1.209
623.128,1.205
623.398,1.199
623.669,1.189
623.940,1.178
624.210,1.170
624.481,1.174
624.751,1.181
625.021,1.182
625.292,1.173
625.562,1.172
625.833,1.171
626.103,1.167
626.373,1.162
626.643,1.165
626.914,1.171
627.184,1.174
627.454,1.173
627.724,1.174
627.994,1.178
628.264,1.182
628.534,1.179
628.804,1.175
629.074,1.175
629.344,1.181
629.614,1.183
629.884,1.178
630.154,1.168
630.424,1.160
630.693,1.149
630.963,1.137
631.233,1.127
631.502,1.131
631.772,1.148
632.041,1.167
632.311,1.176
632.581,1.177
632.850,1.171
633.119,1.161
633.389,1.149
633.658,1.142
633.928,1.145
634.197,1.154
634.466,1.166
634.735,1.173
635.004,1.171
635.274,1.165
635.543,1.160
635.812,1.159
636.081,1.158
636.350,1.158
636.619,1.161
636.888,1.166
637.157,1.168
637.426,1.172
637.694,1.172
637.963,1.170
638.232,1.161
638.501,1.155
638.769,1.157
639.038,1.165
639.307,1.177
639.575,1.182
639.844,1.177
640.112,1.169
640.381,1.155
640.649,1.152
640.917,1.152
641.186,1.155
641.454,1.155
641.722,1.155
641.991,1.157
642.259,1.152
642.527,1.149
642.795,1.150
643.063,1.147
643.331,1.145
643.599,1.146
643.867,1.154
644.135,1.158
644.403,1.161
644.671,1.165
644.939,1.173
645.206,1.179
645.474,1.183
645.742,1.176
646.009,1.165
646.277,1.160
646.545,1.162
646.812,1.172
647.080,1.181
647.347,1.188
647.615,1.184
647.882,1.167
648.149,1.150
648.417,1.138
648.684,1.141
648.951,1.151
649.219,1.162
649.486,1.163
649.753,1.158
650.020,1.151
650.287,1.145
650.554,1.141
650.821,1.138
651.088,1.142
651.355,1.151
651.622,1.159
651.889,1.161
652.155,1.156
652.422,1.155
652.689,1.159
652.956,1.167
653.222,1.178
653.489,1.191
653.755,1.194
654.022,1.181
654.288,1.165
654.555,1.161
654.821,1.168
655.088,1.176
655.354,1.179
655.620,1.183
655.887,1.185
656.153,1.185
656.419,1.179
656.685,1.173
656.951,1.172
657.217,1.171
657.483,1.169
657.749,1.165
658.015,1.162
658.281,1.160
658.547,1.154
658.813,1.149
659.079,1.148
659.345,1.149
659.610,1.148
659.876,1.146
660.142,1.149
660.407,1.153
660.673,1.155
660.939,1.156
661.204,1.156
661.470,1.153
661.735,1.151
662.000,1.151
662.266,1.151
662.531,1.150
662.796,1.151
663.062,1.149
663.327,1.146
663.592,1.146
663.857,1.147
664.122,1.147
664.388,1.144
664.653,1.147
664.918,1.152
665.183,1.155
665.448,1.158
665.712,1.159
665.977,1.162
666.242,1.158
666.507,1.143
666.772,1.129
667.037,1.120
667.301,1.126
667.566,1.133
667.831,1.141
668.095,1.147
668.360,1.150
668.624,1.148
668.889,1.147
669.153,1.143
669.418,1.144
669.682,1.146
669.946,1.156
670.211,1.169
670.475,1.179
670.739,1.187
671.004,1.196
671.268,1.215
671.532,1.230
671.796,1.219
672.060,1.197
672.324,1.177
672.588,1.182
672.852,1.200
673.116,1.236
673.380,1.263
673.644,1.244
673.908,1.201
674.172,1.166
674.436,1.166
674.700,1.169
674.963,1.169
675.227,1.164
675.491,1.157
675.754,1.151
676.018,1.151
676.282,1.156
676.545,1.159
676.809,1.156
677.072,1.146
677.336,1.141
677.599,1.142
677.863,1.144
678.126,1.148
678.389,1.156
678.653,1.165
678.916,1.163
679.179,1.154
679.442,1.148
679.706,1.148
679.969,1.151
680.232,1.157
680.495,1.168
680.758,1.176
681.021,1.176
681.284,1.166
681.547,1.158
681.810,1.159
682.073,1.169
682.336,1.173
682.599,1.172
682.862,1.165
683.125,1.166
683.388,1.170
683.651,1.172
683.913,1.169
684.176,1.162
684.439,1.150
684.702,1.139
684.964,1.131
685.227,1.135
685.490,1.147
685.752,1.165
686.015,1.172
686.277,1.168
686.540,1.157
686.802,1.151
687.065,1.151
687.327,1.155
687.590,1.156
687.852,1.152
688.115,1.142
688.377,1.137
688.639,1.137
688.902,1.144
689.164,1.152
689.426,1.160
689.689,1.162
689.951,1.158
690.213,1.153
690.475,1.151
690.737,1.147
691.000,1.142
691.262,1.141
691.524,1.148
691.786,1.161
692.048,1.169
692.310,1.165
692.572,1.150
692.834,1.137
693.096,1.138
693.358,1.152
693.620,1.167
693.882,1.177
694.144,1.176
694.406,1.166
694.668,1.156
694.930,1.149
695.192,1.147
695.453,1.151
695.715,1.156
695.977,1.155
696.239,1.145
696.501,1.137
696.762,1.137
697.024,1.141
697.286,1.141
697.548,1.139
697.809,1.136
698.071,1.135
698.333,1.138
698.594,1.144
698.856,1.150
699.118,1.152
699.379,1.153
699.641,1.155
699.902,1.157
700.164,1.156
700.426,1.153
700.687,1.148
700.949,1.149
701.210,1.146
701.472,1.140
701.733,1.135
701.995,1.135
702.256,1.137
702.518,1.136
702.779,1.139
703.041,1.153
703.302,1.167
703.563,1.171
703.825,1.163
704.086,1.155
704.348,1.151
704.609,1.153
704.871,1.160
705.132,1.164
705.393,1.157
705.655,1.147
705.916,1.144
706.177,1.147
706.439,1.148
706.700,1.147
706.961,1.147
707.223,1.143
707.484,1.130
707.745,1.113
708.007,1.098
708.268,1.092
708.529,1.086
708.790,1.078
709.052,1.074
709.313,1.075
709.574,1.080
709.835,1.080
710.097,1.070
710.358,1.057
710.619,1.045
710.881,1.038
711.142,1.032
711.403,1.029
711.664,1.024
711.926,1.022
712.187,1.025
712.448,1.034
712.709,1.044
712.970,1.051
713.232,1.054
713.493,1.054
713.754,1.052
714.015,1.054
714.277,1.062
714.538,1.072
714.799,1.080
715.060,1.082
715.322,1.079
715.583,1.070
715.844,1.057
716.105,1.047
716.367,1.044
716.628,1.046
716.889,1.046
717.150,1.043
717.411,1.039
717.673,1.041
717.934,1.046
718.195,1.051
718.457,1.046
718.718,1.036
718.979,1.031
719.240,1.034
719.502,1.043
719.763,1.050
720.024,1.054
720.286,1.054
720.547,1.050
720.808,1.046
721.069,1.042
721.331,1.045
721.592,1.050
721.853,1.052
722.115,1.052
722.376,1.049
722.638,1.049
722.899,1.048
723.160,1.044
723.422,1.040
723.683,1.039
723.944,1.044
724.206,1.048
724.467,1.047
724.729,1.045
724.990,1.046
725.252,1.049
725.513,1.042
725.775,1.029
726.036,1.019
726.298,1.020
726.559,1.028
726.821,1.032
727.082,1.036
727.344,1.037
727.605,1.035
727.867,1.032
728.128,1.030
728.390,1.033
728.652,1.043
728.913,1.054
729.175,1.059
729.436,1.057
729.698,1.053
729.960,1.049
730.221,1.046
730.483,1.037
730.745,1.034
731.007,1.034
731.268,1.037
731.530,1.037
731.792,1.038
732.054,1.041
732.315,1.047
732.577,1.050
732.839,1.043
733.101,1.034
733.363,1.027
733.625,1.026
733.887,1.027
734.149,1.028
734.411,1.031
734.673,1.035
734.935,1.038
735.197,1.039
735.459,1.041
735.721,1.043
735.983,1.040
736.245,1.033
736.507,1.032
736.769,1.038
737.031,1.046
737.293,1.042
737.555,1.034
737.818,1.025
738.080,1.022
738.342,1.018
738.604,1.017
738.867,1.014
739.129,1.015
739.391,1.019
739.654,1.029
739.916,1.038
740.178,1.044
740.441,1.047
740.703,1.045
740.966,1.038
741.228,1.030
741.491,1.027
741.753,1.028
742.016,1.029
742.278,1.028
742.541,1.027
742.804,1.030
743.066,1.037
743.329,1.041
743.592,1.040
743.854,1.041
744.117,1.045
744.380,1.046
744.643,1.039
744.905,1.030
745.168,1.025
745.431,1.025
745.694,1.026
745.957,1.029
746.220,1.029
746.483,1.026
746.746,1.025
747.009,1.037
747.272,1.058
747.535,1.071
747.798,1.065
748.061,1.047
748.324,1.030
748.588,1.021
748.851,1.018
749.114,1.019
749.377,1.025
749.641,1.028
749.904,1.034
750.167,1.041
750.431,1.049
750.694,1.056
750.958,1.058
751.221,1.050
751.485,1.035
751.748,1.024
752.012,1.030
752.275,1.043
752.539,1.051
752.803,1.047
753.066,1.039
753.330,1.034
753.594,1.034
753.857,1.035
754.121,1.040
754.385,1.046
754.649,1.049
754.913,1.051
755.177,1.053
755.441,1.048
755.705,1.039
755.969,1.031
756.233,1.032
756.497,1.038
756.761,1.038
757.025,1.035
757.289,1.029
757.553,1.028
757.818,1.032
758.082,1.038
758.346,1.044
758.610,1.047
758.875,1.049
759.139,1.047
759.404,1.040
759.668,1.034
759.932,1.033
760.197,1.039
760.462,1.043
760.726,1.043
760.991,1.043
761.255,1.041
761.520,1.042
761.785,1.039
762.049,1.033
762.314,1.027
762.579,1.028
762.844,1.034
763.109,1.039
763.374,1.040
763.639,1.039
763.903,1.040
764.168,1.038
764.433,1.039
764.699,1.044
764.964,1.048
765.229,1.045
765.494,1.038
765.759,1.033
766.024,1.032
766.290,1.035
766.555,1.040
766.820,1.044
767.086,1.045
767.351,1.046
767.616,1.044
767.882,1.042
768.147,1.041
768.413,1.039
768.678,1.037
768.944,1.036
769.209,1.041
769.475,1.048
769.741,1.056
770.006,1.063
770.272,1.067
770.538,1.065
770.804,1.058
771.070,1.054
771.335,1.059
771.601,1.067
771.867,1.069
772.133,1.064
772.399,1.054
772.665,1.045
772.931,1.043
773.197,1.045
773.464,1.051
773.730,1.054
773.996,1.058
774.262,1.062
774.528,1.062
774.795,1.063
775.061,1.066
775.327,1.067
775.594,1.061
775.860,1.051
776.126,1.040
776.393,1.034
776.659,1.033
776.926,1.033
777.193,1.033
777.459,1.033
777.726,1.033
777.992,1.030
778.259,1.025
778.526,1.026
778.793,1.029
779.059,1.034
779.326,1.040
779.593,1.046
779.860,1.054
780.127,1.054
780.394,1.053
780.661,1.052
780.928,1.053
781.195,1.050
781.462,1.044
781.729,1.038
781.996,1.037
782.263,1.038
782.530,1.045
782.797,1.048
783.064,1.046
783.332,1.038
783.599,1.031
783.866,1.031
784.134,1.033
784.401,1.036
784.668,1.036
784.936,1.036
785.203,1.032
785.470,1.026
785.738,1.021
786.005,1.019
786.273,1.016
786.541,1.016
786.808,1.021
787.076,1.027
787.343,1.032
787.611,1.043
787.879,1.054
788.146,1.062
788.414,1.062
788.682,1.057
788.950,1.054
789.217,1.054
789.485,1.060
789.753,1.063
790.021,1.055
790.289,1.042
790.557,1.031
790.825,1.029
791.093,1.034
791.361,1.043
791.629,1.051
791.897,1.054
792.165,1.051
792.433,1.043
792.701,1.032
792.969,1.021
793.237,1.019
793.505,1.029
793.773,1.038
794.042,1.038
794.310,1.033
794.578,1.028
794.846,1.025
795.115,1.022
795.383,1.024
795.651,1.032
795.920,1.036
796.188,1.038
796.456,1.037
796.725,1.039
796.993,1.043
797.261,1.044
797.530,1.044
797.798,1.043
798.067,1.051
798.335,1.060
798.604,1.060
798.872,1.046
799.141,1.032
799.409,1.027
799.678,1.027
799.946,1.031
800.215,1.030
800.483,1.032
800.752,1.034
801.020,1.038
801.289,1.039
801.558,1.037
801.826,1.034
802.095,1.030
802.363,1.030
802.632,1.034
802.901,1.040
803.169,1.041
803.438,1.038
803.707,1.031
803.976,1.027
804.244,1.028
804.513,1.030
804.782,1.023
805.050,1.017
805.319,1.018
805.588,1.031
805.857,1.041
806.125,1.045
806.394,1.041
806.663,1.033
806.931,1.025
807.200,1.020
807.469,1.022
807.738,1.023
808.006,1.023
808.275,1.029
808.544,1.040
808.813,1.049
809.082,1.045
809.350,1.037
809.619,1.031
809.888,1.029
810.157,1.025
810.425,1.022
810.694,1.026
810.963,1.033
811.232,1.035
811.500,1.032
811.769,1.026
812.038,1.028
812.306,1.034
812.575,1.042
812.844,1.045
813.113,1.042
813.381,1.035
813.650,1.034
813.919,1.041
814.187,1.049
814.456,1.052
814.725,1.050
814.993,1.048
815.262,1.047
815.531,1.044
815.799,1.041
816.068,1.031
816.336,1.023
816.605,1.021
816.873,1.028
817.142,1.038
817.411,1.043
817.679,1.046
817.948,1.049
818.216,1.062
818.485,1.091
818.753,1.110
819.021,1.096
819.290,1.060
819.558,1.036
819.827,1.038
820.095,1.046
820.363,1.050
820.632,1.049
820.900,1.047
821.168,1.046
821.437,1.044
821.705,1.043
821.973,1.042
822.241,1.044
822.509,1.045
822.777,1.043
823.046,1.041
823.314,1.045
823.582,1.051
823.850,1.055
824.118,1.054
824.386,1.044
824.654,1.028
824.922,1.017
825.190,1.014
825.457,1.026
825.725,1.035
825.993,1.036
826.261,1.035
826.529,1.037
826.796,1.037
827.064,1.032
827.332,1.026
827.599,1.028
827.867,1.037
828.134,1.039
828.402,1.033
828.669,1.024
828.937,1.024
829.204,1.040
829.471,1.059
829.739,1.070
830.006,1.069
830.273,1.060
830.540,1.047
830.807,1.032
831.075,1.025
831.342,1.027
831.609,1.032
831.876,1.036
832.142,1.038
832.409,1.038
832.676,1.033
832.943,1.026
833.210,1.025
833.476,1.030
833.743,1.036
834.010,1.038
834.276,1.031
834.543,1.027
834.809,1.029
835.076,1.033
835.342,1.033
835.608,1.036
835.874,1.039
836.141,1.037
836.407,1.031
836.673,1.028
836.939,1.035
837.205,1.039
837.471,1.039
837.737,1.037
838.002,1.033
838.268,1.029
838.534,1.028
838.799,1.031
839.065,1.037
839.330,1.041
839.596,1.044
839.861,1.048
840.127,1.054
840.392,1.056
840.657,1.060
840.922,1.065
841.187,1.070
841.452,1.069
841.717,1.065
841.982,1.058
842.247,1.050
842.511,1.046
842.776,1.048
843.041,1.049
843.305,1.044
843.570,1.038
843.834,1.036
844.098,1.034
844.362,1.031
844.627,1.028
844.891,1.029
845.155,1.033
845.419,1.041
845.682,1.046
845.946,1.047
846.210,1.047
846.474,1.046
846.737,1.046
847.001,1.041
847.264,1.031
847.527,1.025
847.790,1.027
848.054,1.031
848.317,1.028
848.580,1.023
848.843,1.024
849.105,1.034
849.368,1.046
849.631,1.056
849.893,1.061
850.156,1.068
850.418,1.064
850.680,1.053
850.943,1.045
851.205,1.047
851.467,1.048
851.729,1.040
851.991,1.034
852.252,1.040
852.514,1.050
852.776,1.059
853.037,1.064
853.298,1.060
853.560,1.050
853.821,1.036
854.082,1.028
854.343,1.031
854.604,1.046
854.865,1.063
855.126,1.075
855.386,1.078
855.647,1.077
855.907,1.071
856.168,1.063
856.428,1.057
856.688,1.051
856.948,1.038
857.208,1.025
857.468,1.022
857.727,1.032
857.987,1.041
858.247,1.046
858.506,1.049
858.765,1.046
859.024,1.035
859.284,1.021
859.543,1.016
859.801,1.013
860.060,1.018
860.319,1.030
860.577,1.045
860.836,1.054
861.094,1.057
861.352,1.055
861.611,1.049
861.869,1.038
862.127,1.036
862.384,1.040
862.642,1.046
862.900,1.053
863.157,1.057
863.414,1.054
863.672,1.042
863.929,1.031
864.186,1.031
864.443,1.036
864.699,1.041
864.956,1.036
865.212,1.027
865.469,1.024
865.725,1.033
865.981,1.045
866.237,1.051
866.493,1.050
866.749,1.044
867.005,1.037
867.260,1.030
867.516,1.026
867.771,1.022
868.026,1.027
868.282,1.036
868.536,1.045
868.791,1.044
869.046,1.037
869.301,1.033
869.555,1.037
869.809,1.046
870.064,1.053
870.318,1.058
870.572,1.057
870.826,1.047
871.079,1.037
871.333,1.032
871.586,1.033
871.840,1.034
872.093,1.034
872.346,1.043
872.599,1.056
872.852,1.070
873.105,1.075
873.357,1.068
873.610,1.059
873.862,1.056
874.114,1.058
874.366,1.058
874.618,1.050
874.870,1.038
875.121,1.030
875.373,1.029
875.624,1.035
875.876,1.038
876.127,1.038
876.378,1.036
876.629,1.037
876.879,1.041
877.130,1.044
877.381,1.037
877.631,1.026
877.881,1.021
878.131,1.029
878.381,1.045
878.631,1.059
878.881,1.063
879.130,1.060
879.380,1.053
879.629,1.047
879.878,1.041
880.127,1.038
880.376,1.039
880.625,1.047
880.873,1.054
881.122,1.057
881.370,1.052
881.618,1.043
881.866,1.036
882.114,1.028
882.362,1.027
882.610,1.030
882.857,1.038
883.105,1.040
883.352,1.034
883.599,1.028
883.846,1.024
884.093,1.025
884.340,1.032
884.586,1.042
884.833,1.049
885.079,1.048
885.325,1.043
885.571,1.042
885.817,1.045
886.063,1.049
886.309,1.051
886.554,1.053
886.800,1.056
887.045,1.056
887.290,1.049
887.535,1.041
887.780,1.040
888.025,1.047
888.270,1.060
888.514,1.069
888.758,1.072
889.003,1.063
889.247,1.048
889.491,1.042
889.735,1.045
889.978,1.054
890.222,1.051
890.465,1.045
890.709,1.037
890.952,1.032
891.195,1.030
891.438,1.027
891.681,1.024
891.923,1.024
892.166,1.026
892.408,1.028
892.651,1.026
892.893,1.021
893.135,1.020
893.377,1.023
893.619,1.030
893.861,1.037
894.102,1.043
894.344,1.054
894.585,1.069
894.826,1.076
895.067,1.068
895.308,1.054
895.549,1.040
895.790,1.032
896.031,1.025
896.271,1.027
896.512,1.035
896.752,1.043
896.992,1.042
897.232,1.032
897.472,1.026
897.712,1.033
897.952,1.047
898.191,1.052
898.431,1.053
898.670,1.055
898.910,1.063
899.149,1.071
899.388,1.075
899.627,1.072
899.866,1.062
900.105,1.048
900.343,1.044
900.582,1.046
900.820,1.055
901.059,1.064
901.297,1.066
901.535,1.052
901.773,1.035
902.011,1.022
902.249,1.018
902.487,1.018
902.725,1.024
902.963,1.031
903.200,1.032
903.438,1.032
903.675,1.036
903.912,1.044
904.150,1.054
904.387,1.052
904.624,1.041
904.861,1.028
905.098,1.023
905.334,1.027
905.571,1.027
905.808,1.030
906.045,1.039
906.281,1.051
906.518,1.056
906.754,1.057
906.990,1.056
907.227,1.052
907.463,1.041
907.699,1.033
907.935,1.036
908.171,1.044
908.407,1.046
908.643,1.043
908.879,1.043
909.115,1.049
909.350,1.055
909.586,1.057
909.822,1.057
910.057,1.062
910.293,1.074
910.528,1.079
910.764,1.077
910.999,1.072
911.235,1.067
911.470,1.066
911.706,1.060
911.941,1.056
912.176,1.048
912.412,1.043
912.647,1.044
912.882,1.049
913.117,1.054
913.352,1.053
913.588,1.048
913.823,1.044
914.058,1.044
914.293,1.043
914.528,1.037
914.763,1.032
914.999,1.029
915.234,1.032
915.469,1.035
915.704,1.036
915.939,1.033
916.174,1.028
916.409,1.031
916.645,1.043
916.880,1.053
917.115,1.055
917.350,1.049
917.586,1.047
917.821,1.050
918.056,1.058
918.292,1.062
918.527,1.059
918.763,1.052
918.998,1.048
919.234,1.056
919.469,1.069
919.705,1.076
919.940,1.071
920.176,1.066
920.412,1.067
920.648,1.066
920.884,1.061
921.120,1.052
921.356,1.046
921.592,1.041
921.828,1.039
922.065,1.040
922.301,1.043
922.537,1.046
922.774,1.047
923.011,1.041
923.247,1.035
923.484,1.038
923.721,1.051
923.958,1.061
924.195,1.060
924.433,1.050
924.670,1.037
924.908,1.027
925.145,1.029
925.383,1.036
925.621,1.044
925.859,1.049
926.097,1.054
926.335,1.057
926.574,1.059
926.813,1.059
927.051,1.056
927.290,1.052
927.529,1.055
927.769,1.066
928.008,1.070
928.248,1.060
928.487,1.049
928.727,1.048
928.967,1.058
929.208,1.066
929.448,1.066
929.689,1.057
929.930,1.042
930.171,1.033
930.413,1.031
930.654,1.032
930.896,1.029
931.138,1.022
931.380,1.021
931.623,1.030
931.865,1.041
932.108,1.050
932.352,1.056
932.595,1.061
932.839,1.062
933.083,1.057
933.327,1.046
933.571,1.039
933.816,1.043
934.061,1.047
934.307,1.045
934.552,1.036
934.798,1.031
935.045,1.032
935.291,1.038
935.538,1.045
935.785,1.051
936.033,1.055
936.281,1.057
936.529,1.060
936.777,1.058
937.026,1.050
937.275,1.043
937.525,1.036
937.775,1.033
938.025,1.028
938.276,1.025
938.527,1.027
938.778,1.029
939.030,1.030
939.282,1.029
939.535,1.032
939.788,1.037
940.041,1.033
940.295,1.029
940.550,1.030
940.804,1.040
941.059,1.047
941.315,1.044
941.571,1.035
941.828,1.028
942.085,1.027
942.342,1.028
942.600,1.027
942.858,1.026
943.117,1.024
943.377,1.024
943.636,1.021
943.897,1.018
944.158,1.019
944.419,1.024
944.681,1.029
944.944,1.034
945.207,1.041
945.470,1.048
945.734,1.052
945.999,1.058
946.264,1.066
946.530,1.069
946.797,1.065
947.064,1.058
947.331,1.051
947.600,1.042
947.869,1.035
948.138,1.031
948.408,1.031
948.679,1.036
948.950,1.041
949.222,1.038
949.495,1.030
949.768,1.027
950.043,1.035
