Wavelength (nm),Intensity Source #112,,C:\Users\Brend\Desktop\LED Spectras v2\Spectrometer Data.sp,,,Source #112,
379.792,1.843,,2018-06-14 12:18:41,,Integration Time,125 ms,
380.000,1.843,,Analyze Light,,Number of Scans to Average,25,
380.209,1.842,,,,Smoothing,1,
380.418,1.851
380.627,1.863
380.837,1.874
381.048,1.883
381.259,1.884
381.471,1.882
381.683,1.882
381.896,1.891
382.110,1.900
382.324,1.911
382.538,1.927
382.753,1.944
382.969,1.944
383.185,1.935
383.402,1.925
383.619,1.929
383.837,1.941
384.055,1.962
384.274,1.981
384.493,1.992
384.712,1.995
384.932,2.001
385.153,2.009
385.374,2.018
385.596,2.026
385.818,2.041
386.040,2.058
386.263,2.073
386.487,2.078
386.710,2.077
386.935,2.068
387.159,2.065
387.385,2.060
387.610,2.062
387.836,2.063
388.063,2.074
388.289,2.085
388.517,2.096
388.744,2.097
388.972,2.109
389.201,2.115
389.430,2.124
389.659,2.128
389.889,2.139
390.119,2.147
390.349,2.152
390.580,2.160
390.811,2.169
391.042,2.174
391.274,2.177
391.507,2.178
391.739,2.182
391.972,2.183
392.205,2.193
392.439,2.207
392.673,2.225
392.907,2.237
393.142,2.248
393.377,2.255
393.612,2.268
393.848,2.276
394.084,2.284
394.320,2.285
394.557,2.293
394.794,2.297
395.031,2.307
395.269,2.321
395.507,2.337
395.745,2.345
395.983,2.350
396.222,2.358
396.461,2.378
396.700,2.397
396.940,2.411
397.180,2.415
397.420,2.416
397.660,2.415
397.901,2.415
398.142,2.414
398.383,2.409
398.625,2.403
398.866,2.410
399.108,2.432
399.351,2.468
399.593,2.485
399.836,2.489
400.079,2.477
400.322,2.475
400.566,2.470
400.809,2.470
401.053,2.468
401.298,2.474
401.542,2.484
401.787,2.504
402.031,2.519
402.277,2.533
402.522,2.535
402.767,2.541
403.013,2.541
403.259,2.549
403.505,2.555
403.752,2.562
403.998,2.561
404.245,2.575
404.492,2.591
404.739,2.604
404.986,2.608
405.234,2.612
405.482,2.616
405.730,2.617
405.978,2.618
406.226,2.622
406.475,2.621
406.723,2.621
406.972,2.628
407.221,2.647
407.470,2.662
407.720,2.672
407.969,2.669
408.219,2.674
408.469,2.683
408.719,2.697
408.969,2.701
409.219,2.711
409.470,2.724
409.720,2.749
409.971,2.763
410.222,2.777
410.473,2.777
410.724,2.780
410.976,2.786
411.227,2.801
411.479,2.811
411.731,2.816
411.983,2.810
412.235,2.808
412.487,2.809
412.740,2.822
412.992,2.831
413.245,2.837
413.497,2.836
413.750,2.838
414.003,2.836
414.257,2.838
414.510,2.839
414.763,2.849
415.017,2.854
415.270,2.858
415.524,2.858
415.778,2.863
416.032,2.867
416.286,2.883
416.540,2.892
416.794,2.905
417.049,2.898
417.303,2.896
417.558,2.893
417.812,2.898
418.067,2.902
418.322,2.908
418.577,2.911
418.832,2.912
419.088,2.898
419.343,2.893
419.598,2.881
419.854,2.884
420.109,2.884
420.365,2.899
420.621,2.909
420.876,2.922
421.132,2.925
421.388,2.928
421.645,2.927
421.901,2.935
422.157,2.938
422.413,2.948
422.670,2.950
422.926,2.959
423.183,2.959
423.439,2.974
423.696,2.990
423.953,3.027
424.210,3.055
424.467,3.073
424.724,3.070
424.981,3.061
425.238,3.062
425.495,3.084
425.753,3.113
426.010,3.148
426.267,3.172
426.525,3.210
426.782,3.244
427.040,3.288
427.298,3.328
427.555,3.380
427.813,3.425
428.071,3.474
428.329,3.521
428.587,3.575
428.845,3.632
429.103,3.698
429.361,3.766
429.619,3.842
429.878,3.919
430.136,4.005
430.394,4.085
430.653,4.184
430.911,4.288
431.170,4.405
431.428,4.513
431.687,4.640
431.946,4.762
432.204,4.895
432.463,5.022
432.722,5.166
432.981,5.313
433.240,5.478
433.499,5.650
433.758,5.840
434.017,6.023
434.276,6.217
434.535,6.413
434.794,6.628
435.053,6.842
435.312,7.070
435.572,7.299
435.831,7.553
436.090,7.825
436.350,8.114
436.609,8.404
436.869,8.696
437.128,8.990
437.388,9.307
437.647,9.636
437.907,9.993
438.166,10.344
438.426,10.715
438.686,11.091
438.946,11.499
439.205,11.916
439.465,12.369
439.725,12.840
439.985,13.336
440.245,13.828
440.505,14.331
440.765,14.835
441.025,15.363
441.285,15.898
441.545,16.468
441.805,17.060
442.065,17.687
442.325,18.339
442.585,19.030
442.846,19.754
443.106,20.521
443.366,21.331
443.626,22.164
443.887,23.028
444.147,23.923
444.407,24.875
444.668,25.873
444.928,26.906
445.189,27.990
445.449,29.129
445.710,30.326
445.970,31.575
446.231,32.874
446.491,34.248
446.752,35.678
447.012,37.165
447.273,38.710
447.534,40.311
447.794,41.967
448.055,43.668
448.316,45.450
448.577,47.316
448.837,49.258
449.098,51.267
449.359,53.309
449.620,55.383
449.881,57.479
450.142,59.605
450.403,61.787
450.664,64.023
450.924,66.298
451.185,68.582
451.446,70.856
451.707,73.125
451.969,75.358
452.230,77.556
452.491,79.676
452.752,81.675
453.013,83.466
453.274,85.000
453.535,86.264
453.796,87.312
454.058,88.208
454.319,89.005
454.580,89.697
454.841,90.296
455.103,90.792
455.364,91.205
455.625,91.544
455.887,91.813
456.148,92.028
456.409,92.180
456.671,92.279
456.932,92.314
457.194,92.288
457.455,92.206
457.716,92.076
457.978,91.906
458.239,91.696
458.501,91.447
458.763,91.144
459.024,90.773
459.286,90.322
459.547,89.793
459.809,89.171
460.071,88.462
460.332,87.650
460.594,86.737
460.856,85.687
461.117,84.429
461.379,82.956
461.641,81.285
461.903,79.521
462.164,77.733
462.426,75.943
462.688,74.172
462.950,72.411
463.212,70.674
463.474,68.948
463.736,67.250
463.998,65.619
464.260,64.072
464.522,62.605
464.784,61.204
465.046,59.858
465.308,58.585
465.570,57.375
465.832,56.232
466.094,55.133
466.356,54.085
466.618,53.071
466.880,52.072
467.142,51.101
467.405,50.178
467.667,49.331
467.929,48.507
468.191,47.706
468.454,46.904
468.716,46.109
468.978,45.300
469.241,44.488
469.503,43.706
469.765,42.947
470.028,42.214
470.290,41.492
470.552,40.768
470.815,40.047
471.077,39.317
471.340,38.601
471.602,37.882
471.865,37.158
472.128,36.410
472.390,35.672
472.653,34.928
472.915,34.195
473.178,33.449
473.441,32.711
473.703,31.967
473.966,31.218
474.229,30.456
474.492,29.701
474.755,28.947
475.017,28.212
475.280,27.495
475.543,26.789
475.806,26.073
476.069,25.339
476.332,24.620
476.595,23.926
476.858,23.271
477.121,22.636
477.384,22.010
477.647,21.410
477.910,20.816
478.173,20.241
478.436,19.674
478.699,19.142
478.962,18.630
479.226,18.141
479.489,17.661
479.752,17.188
480.015,16.714
480.279,16.258
480.542,15.814
480.805,15.393
481.069,14.984
481.332,14.606
481.595,14.243
481.859,13.918
482.122,13.593
482.386,13.278
482.649,12.947
482.913,12.627
483.177,12.309
483.440,12.008
483.704,11.728
483.967,11.482
484.231,11.244
484.495,11.008
484.759,10.761
485.022,10.515
485.286,10.268
485.550,10.030
485.814,9.785
486.078,9.539
486.342,9.295
486.606,9.078
486.869,8.874
487.133,8.684
487.397,8.490
487.662,8.298
487.926,8.096
488.190,7.895
488.454,7.690
488.718,7.492
488.982,7.289
489.246,7.109
489.511,6.928
489.775,6.758
490.039,6.578
490.304,6.404
490.568,6.225
490.832,6.057
491.097,5.894
491.361,5.749
491.626,5.598
491.890,5.457
492.155,5.309
492.419,5.176
492.684,5.030
492.949,4.890
493.213,4.740
493.478,4.614
493.743,4.484
494.008,4.355
494.272,4.219
494.537,4.107
494.802,4.007
495.067,3.926
495.332,3.837
495.597,3.759
495.862,3.670
496.127,3.590
496.392,3.502
496.657,3.419
496.922,3.329
497.187,3.247
497.452,3.170
497.718,3.115
497.983,3.056
498.248,2.998
498.513,2.933
498.779,2.885
499.044,2.840
499.310,2.790
499.575,2.729
499.841,2.679
500.106,2.633
500.372,2.589
500.637,2.546
500.903,2.518
501.168,2.489
501.434,2.454
501.700,2.407
501.966,2.366
502.231,2.326
502.497,2.290
502.763,2.248
503.029,2.211
503.295,2.181
503.561,2.158
503.827,2.141
504.093,2.124
504.359,2.103
504.625,2.077
504.891,2.050
505.157,2.032
505.423,2.010
505.690,1.984
505.956,1.957
506.222,1.943
506.489,1.944
506.755,1.951
507.021,1.950
507.288,1.938
507.554,1.914
507.821,1.892
508.087,1.874
508.354,1.869
508.621,1.860
508.887,1.843
509.154,1.824
509.421,1.809
509.687,1.795
509.954,1.775
510.221,1.754
510.488,1.747
510.755,1.746
511.022,1.745
511.289,1.732
511.556,1.720
511.823,1.710
512.090,1.715
512.357,1.711
512.624,1.701
512.891,1.682
513.159,1.668
513.426,1.657
513.693,1.651
513.960,1.648
514.228,1.646
514.495,1.643
514.763,1.640
515.030,1.638
515.298,1.630
515.565,1.626
515.833,1.619
516.100,1.614
516.368,1.607
516.636,1.599
516.904,1.596
517.171,1.590
517.439,1.586
517.707,1.579
517.975,1.576
518.243,1.577
518.511,1.574
518.779,1.560
519.047,1.554
519.315,1.551
519.583,1.548
519.851,1.533
520.119,1.522
520.387,1.517
520.656,1.513
520.924,1.507
521.192,1.504
521.461,1.503
521.729,1.506
521.997,1.509
522.266,1.508
522.534,1.506
522.803,1.508
523.071,1.504
523.340,1.491
523.609,1.472
523.877,1.463
524.146,1.464
524.415,1.468
524.684,1.470
524.952,1.467
525.221,1.466
525.490,1.473
525.759,1.483
526.028,1.485
526.297,1.472
526.566,1.459
526.835,1.453
527.104,1.452
527.373,1.453
527.642,1.453
527.912,1.449
528.181,1.444
528.450,1.442
528.719,1.446
528.989,1.453
529.258,1.458
529.528,1.456
529.797,1.449
530.067,1.448
530.336,1.446
530.606,1.441
530.875,1.431
531.145,1.424
531.414,1.428
531.684,1.438
531.954,1.443
532.224,1.439
532.493,1.424
532.763,1.417
533.033,1.416
533.303,1.420
533.573,1.424
533.843,1.421
534.113,1.418
534.383,1.413
534.653,1.413
534.923,1.416
535.193,1.421
535.463,1.432
535.733,1.442
536.004,1.449
536.274,1.446
536.544,1.438
536.814,1.427
537.085,1.419
537.355,1.421
537.626,1.430
537.896,1.436
538.166,1.435
538.437,1.429
538.707,1.427
538.978,1.429
539.249,1.438
539.519,1.442
539.790,1.434
540.061,1.424
540.331,1.423
540.602,1.436
540.873,1.445
541.144,1.446
541.414,1.441
541.685,1.440
541.956,1.439
542.227,1.437
542.498,1.432
542.769,1.431
543.040,1.435
543.311,1.447
543.582,1.460
543.853,1.468
544.124,1.470
544.396,1.470
544.667,1.471
544.938,1.467
545.209,1.449
545.480,1.433
545.752,1.425
546.023,1.428
546.294,1.424
546.566,1.416
546.837,1.405
547.109,1.401
547.380,1.402
547.652,1.402
547.923,1.404
548.195,1.411
548.466,1.422
548.738,1.435
549.009,1.434
549.281,1.425
549.553,1.405
549.824,1.386
550.096,1.378
550.368,1.378
550.640,1.382
550.911,1.384
551.183,1.395
551.455,1.412
551.727,1.425
551.999,1.419
552.271,1.405
552.543,1.395
552.815,1.390
553.087,1.394
553.359,1.398
553.631,1.406
553.903,1.410
554.175,1.415
554.447,1.419
554.719,1.421
554.991,1.420
555.263,1.419
555.535,1.414
555.808,1.408
556.080,1.395
556.352,1.386
556.624,1.382
556.897,1.380
557.169,1.381
557.441,1.378
557.714,1.373
557.986,1.371
558.258,1.370
558.531,1.378
558.803,1.383
559.076,1.387
559.348,1.385
559.621,1.380
559.893,1.378
560.166,1.374
560.438,1.370
560.711,1.365
560.983,1.362
561.256,1.364
561.528,1.372
561.801,1.381
562.074,1.388
562.346,1.395
562.619,1.399
562.892,1.398
563.164,1.394
563.437,1.389
563.710,1.386
563.983,1.379
564.255,1.374
564.528,1.376
564.801,1.383
565.074,1.389
565.346,1.386
565.619,1.384
565.892,1.385
566.165,1.383
566.438,1.372
566.711,1.363
566.984,1.361
567.257,1.363
567.529,1.368
567.802,1.379
568.075,1.390
568.348,1.392
568.621,1.390
568.894,1.384
569.167,1.381
569.440,1.373
569.713,1.365
569.986,1.364
570.259,1.365
570.532,1.372
570.805,1.379
571.078,1.381
571.351,1.381
571.625,1.379
571.898,1.372
572.171,1.362
572.444,1.355
572.717,1.363
572.990,1.378
573.263,1.382
573.536,1.372
573.809,1.357
574.083,1.350
574.356,1.354
574.629,1.368
574.902,1.376
575.175,1.374
575.448,1.362
575.721,1.355
575.995,1.356
576.268,1.359
576.541,1.365
576.814,1.369
577.087,1.375
577.361,1.379
577.634,1.377
577.907,1.366
578.180,1.352
578.453,1.346
578.727,1.351
579.000,1.356
579.273,1.363
579.546,1.370
579.820,1.382
580.093,1.385
580.366,1.376
580.639,1.361
580.913,1.354
581.186,1.354
581.459,1.357
581.732,1.354
582.005,1.351
582.279,1.349
582.552,1.353
582.825,1.357
583.098,1.360
583.372,1.363
583.645,1.365
583.918,1.368
584.191,1.368
584.464,1.366
584.738,1.365
585.011,1.360
585.284,1.353
585.557,1.347
585.831,1.348
586.104,1.359
586.377,1.376
586.650,1.387
586.923,1.390
587.196,1.384
587.470,1.374
587.743,1.365
588.016,1.359
588.289,1.363
588.562,1.369
588.835,1.371
589.109,1.367
589.382,1.360
589.655,1.355
589.928,1.350
590.201,1.346
590.474,1.349
590.747,1.358
591.020,1.369
591.293,1.374
591.567,1.374
591.840,1.369
592.113,1.362
592.386,1.353
592.659,1.343
592.932,1.342
593.205,1.347
593.478,1.351
593.751,1.347
594.024,1.342
594.297,1.340
594.570,1.340
594.843,1.345
595.116,1.352
595.389,1.355
595.662,1.352
595.934,1.351
596.207,1.357
596.480,1.367
596.753,1.375
597.026,1.376
597.299,1.373
597.572,1.368
597.844,1.360
598.117,1.352
598.390,1.345
598.663,1.340
598.936,1.341
599.208,1.345
599.481,1.351
599.754,1.352
600.026,1.342
600.299,1.331
600.572,1.327
600.844,1.330
601.117,1.330
601.390,1.328
601.662,1.326
601.935,1.325
602.207,1.326
602.480,1.332
602.752,1.337
603.025,1.335
603.297,1.333
603.570,1.339
603.842,1.352
604.115,1.361
604.387,1.365
604.660,1.359
604.932,1.354
605.204,1.355
605.477,1.363
605.749,1.374
606.021,1.383
606.294,1.388
606.566,1.380
606.838,1.371
607.110,1.368
607.383,1.371
607.655,1.375
607.927,1.379
608.199,1.387
608.471,1.392
608.743,1.393
609.015,1.391
609.287,1.392
609.559,1.393
609.831,1.394
610.103,1.391
610.375,1.386
610.647,1.378
610.919,1.369
611.191,1.364
611.463,1.362
611.735,1.359
612.007,1.351
612.278,1.346
612.550,1.344
612.822,1.351
613.094,1.359
613.365,1.362
613.637,1.362
613.909,1.360
614.180,1.362
614.452,1.360
614.723,1.354
614.995,1.346
615.266,1.346
615.538,1.357
615.809,1.365
616.081,1.364
616.352,1.356
616.623,1.351
616.895,1.347
617.166,1.341
617.437,1.337
617.709,1.336
617.980,1.340
618.251,1.346
618.522,1.354
618.793,1.363
619.065,1.375
619.336,1.374
619.607,1.363
619.878,1.355
620.149,1.361
620.420,1.366
620.691,1.361
620.962,1.358
621.232,1.363
621.503,1.360
621.774,1.353
622.045,1.344
622.316,1.349
622.586,1.361
622.857,1.376
623.128,1.384
623.398,1.382
623.669,1.371
623.940,1.357
624.210,1.348
624.481,1.351
624.751,1.356
625.021,1.355
625.292,1.348
625.562,1.344
625.833,1.340
626.103,1.336
626.373,1.327
626.643,1.329
626.914,1.335
627.184,1.346
627.454,1.347
627.724,1.345
627.994,1.344
628.264,1.345
628.534,1.338
628.804,1.330
629.074,1.329
629.344,1.337
629.614,1.342
629.884,1.338
630.154,1.329
630.424,1.316
630.693,1.303
630.963,1.293
631.233,1.288
631.502,1.295
631.772,1.309
632.041,1.328
632.311,1.337
632.581,1.337
632.850,1.332
633.119,1.324
633.389,1.317
633.658,1.310
633.928,1.314
634.197,1.323
634.466,1.336
634.735,1.342
635.004,1.339
635.274,1.332
635.543,1.326
635.812,1.326
636.081,1.327
636.350,1.330
636.619,1.333
636.888,1.333
637.157,1.331
637.426,1.335
637.694,1.340
637.963,1.340
638.232,1.334
638.501,1.325
638.769,1.325
639.038,1.329
639.307,1.341
639.575,1.347
639.844,1.343
640.112,1.333
640.381,1.321
640.649,1.318
640.917,1.320
641.186,1.322
641.454,1.323
641.722,1.322
641.991,1.327
642.259,1.327
642.527,1.325
642.795,1.322
643.063,1.316
643.331,1.314
643.599,1.312
643.867,1.319
644.135,1.323
644.403,1.327
644.671,1.328
644.939,1.331
645.206,1.332
645.474,1.332
645.742,1.326
646.009,1.318
646.277,1.313
646.545,1.317
646.812,1.328
647.080,1.339
647.347,1.344
647.615,1.340
647.882,1.329
648.149,1.317
648.417,1.312
648.684,1.314
648.951,1.324
649.219,1.333
649.486,1.337
649.753,1.334
650.020,1.329
650.287,1.323
650.554,1.317
650.821,1.312
651.088,1.310
651.355,1.315
651.622,1.318
651.889,1.320
652.155,1.314
652.422,1.318
652.689,1.326
652.956,1.335
653.222,1.341
653.489,1.352
653.755,1.360
654.022,1.357
654.288,1.346
654.555,1.338
654.821,1.339
655.088,1.341
655.354,1.343
655.620,1.346
655.887,1.349
656.153,1.351
656.419,1.351
656.685,1.351
656.951,1.350
657.217,1.349
657.483,1.342
657.749,1.337
658.015,1.336
658.281,1.340
658.547,1.336
658.813,1.325
659.079,1.315
659.345,1.314
659.610,1.318
659.876,1.322
660.142,1.322
660.407,1.321
660.673,1.321
660.939,1.322
661.204,1.319
661.470,1.315
661.735,1.314
662.000,1.317
662.266,1.318
662.531,1.315
662.796,1.312
663.062,1.307
663.327,1.301
663.592,1.300
663.857,1.306
664.122,1.312
664.388,1.313
664.653,1.314
664.918,1.317
665.183,1.321
665.448,1.325
665.712,1.328
665.977,1.335
666.242,1.335
666.507,1.323
666.772,1.310
667.037,1.299
667.301,1.304
667.566,1.310
667.831,1.316
668.095,1.319
668.360,1.320
668.624,1.314
668.889,1.312
669.153,1.308
669.418,1.311
669.682,1.316
669.946,1.325
670.211,1.336
670.475,1.343
670.739,1.350
671.004,1.357
671.268,1.378
671.532,1.401
671.796,1.397
672.060,1.376
672.324,1.353
672.588,1.354
672.852,1.364
673.116,1.392
673.380,1.417
673.644,1.402
673.908,1.363
674.172,1.327
674.436,1.327
674.700,1.330
674.963,1.333
675.227,1.332
675.491,1.327
675.754,1.321
676.018,1.318
676.282,1.325
676.545,1.330
676.809,1.329
677.072,1.324
677.336,1.317
677.599,1.314
677.863,1.312
678.126,1.316
678.389,1.327
678.653,1.334
678.916,1.333
679.179,1.324
679.442,1.318
679.706,1.317
679.969,1.319
680.232,1.323
680.495,1.329
680.758,1.333
681.021,1.329
681.284,1.319
681.547,1.310
681.810,1.313
682.073,1.326
682.336,1.336
682.599,1.336
682.862,1.330
683.125,1.331
683.388,1.337
683.651,1.339
683.913,1.335
684.176,1.326
684.439,1.316
684.702,1.305
684.964,1.299
685.227,1.302
685.490,1.313
685.752,1.330
686.015,1.337
686.277,1.337
686.540,1.326
686.802,1.317
687.065,1.315
687.327,1.318
687.590,1.319
687.852,1.313
688.115,1.303
688.377,1.298
688.639,1.299
688.902,1.302
689.164,1.306
689.426,1.314
689.689,1.324
689.951,1.327
690.213,1.326
690.475,1.323
690.737,1.321
691.000,1.314
691.262,1.315
691.524,1.323
691.786,1.336
692.048,1.344
692.310,1.338
692.572,1.322
692.834,1.306
693.096,1.301
693.358,1.310
693.620,1.320
693.882,1.328
694.144,1.329
694.406,1.326
694.668,1.321
694.930,1.314
695.192,1.307
695.453,1.307
695.715,1.311
695.977,1.315
696.239,1.312
696.501,1.312
696.762,1.318
697.024,1.322
697.286,1.315
697.548,1.306
697.809,1.303
698.071,1.304
698.333,1.306
698.594,1.306
698.856,1.312
699.118,1.317
699.379,1.322
699.641,1.326
699.902,1.331
700.164,1.333
700.426,1.328
700.687,1.317
700.949,1.310
701.210,1.307
701.472,1.305
701.733,1.301
701.995,1.302
702.256,1.303
702.518,1.305
702.779,1.304
703.041,1.315
703.302,1.329
703.563,1.333
703.825,1.323
704.086,1.311
704.348,1.308
704.609,1.313
704.871,1.322
705.132,1.331
705.393,1.329
705.655,1.324
705.916,1.321
706.177,1.323
706.439,1.324
706.700,1.321
706.961,1.315
707.223,1.310
707.484,1.295
707.745,1.282
708.007,1.270
708.268,1.262
708.529,1.253
708.790,1.241
709.052,1.235
709.313,1.236
709.574,1.242
709.835,1.246
710.097,1.243
710.358,1.232
710.619,1.218
710.881,1.207
711.142,1.200
711.403,1.195
711.664,1.191
711.926,1.188
712.187,1.191
712.448,1.199
712.709,1.211
712.970,1.216
713.232,1.219
713.493,1.220
713.754,1.221
714.015,1.225
714.277,1.229
714.538,1.236
714.799,1.244
715.060,1.247
715.322,1.244
715.583,1.232
715.844,1.221
716.105,1.211
716.367,1.207
716.628,1.208
716.889,1.209
717.150,1.205
717.411,1.199
717.673,1.200
717.934,1.207
718.195,1.212
718.457,1.210
718.718,1.203
718.979,1.200
719.240,1.203
719.502,1.209
719.763,1.216
720.024,1.221
720.286,1.224
720.547,1.216
720.808,1.207
721.069,1.201
721.331,1.203
721.592,1.210
721.853,1.212
722.115,1.216
722.376,1.220
722.638,1.223
722.899,1.224
723.160,1.220
723.422,1.214
723.683,1.210
723.944,1.211
724.206,1.212
724.467,1.212
724.729,1.211
724.990,1.214
725.252,1.215
725.513,1.208
725.775,1.197
726.036,1.190
726.298,1.194
726.559,1.202
726.821,1.206
727.082,1.205
727.344,1.202
727.605,1.202
727.867,1.200
728.128,1.201
728.390,1.201
728.652,1.211
728.913,1.223
729.175,1.231
729.436,1.231
729.698,1.225
729.960,1.219
730.221,1.212
730.483,1.204
730.745,1.202
731.007,1.201
731.268,1.204
731.530,1.207
731.792,1.210
732.054,1.212
732.315,1.214
732.577,1.215
732.839,1.208
733.101,1.200
733.363,1.196
733.625,1.200
733.887,1.205
734.149,1.207
734.411,1.209
734.673,1.212
734.935,1.214
735.197,1.214
735.459,1.214
735.721,1.213
735.983,1.210
736.245,1.200
736.507,1.196
736.769,1.199
737.031,1.206
737.293,1.204
737.555,1.196
737.818,1.187
738.080,1.181
738.342,1.181
738.604,1.183
738.867,1.186
739.129,1.186
739.391,1.185
739.654,1.184
739.916,1.186
740.178,1.193
740.441,1.200
740.703,1.205
740.966,1.205
741.228,1.203
741.491,1.202
741.753,1.205
742.016,1.207
742.278,1.206
742.541,1.203
742.804,1.204
743.066,1.210
743.329,1.213
743.592,1.211
743.854,1.208
744.117,1.211
744.380,1.215
744.643,1.212
744.905,1.207
745.168,1.204
745.431,1.201
745.694,1.198
745.957,1.196
746.220,1.194
746.483,1.192
746.746,1.190
747.009,1.198
747.272,1.215
747.535,1.231
747.798,1.234
748.061,1.221
748.324,1.204
748.588,1.196
748.851,1.196
749.114,1.199
749.377,1.202
749.641,1.203
749.904,1.205
750.167,1.209
750.431,1.215
750.694,1.221
750.958,1.220
751.221,1.210
751.485,1.197
751.748,1.190
752.012,1.194
752.275,1.206
752.539,1.212
752.803,1.209
753.066,1.197
753.330,1.189
753.594,1.187
753.857,1.191
754.121,1.197
754.385,1.205
754.649,1.211
754.913,1.217
755.177,1.221
755.441,1.219
755.705,1.209
755.969,1.198
756.233,1.198
756.497,1.207
756.761,1.209
757.025,1.204
757.289,1.197
757.553,1.196
757.818,1.200
758.082,1.202
758.346,1.204
758.610,1.206
758.875,1.208
759.139,1.206
759.404,1.200
759.668,1.196
759.932,1.197
760.197,1.202
760.462,1.206
760.726,1.207
760.991,1.207
761.255,1.208
761.520,1.207
761.785,1.202
762.049,1.192
762.314,1.188
762.579,1.192
762.844,1.206
763.109,1.212
763.374,1.214
763.639,1.210
763.903,1.206
764.168,1.201
764.433,1.201
764.699,1.210
764.964,1.217
765.229,1.216
765.494,1.210
765.759,1.204
766.024,1.203
766.290,1.208
766.555,1.213
766.820,1.217
767.086,1.220
767.351,1.220
767.616,1.216
767.882,1.211
768.147,1.209
768.413,1.206
768.678,1.201
768.944,1.199
769.209,1.203
769.475,1.210
769.741,1.214
770.006,1.218
770.272,1.221
770.538,1.219
770.804,1.213
771.070,1.211
771.335,1.218
771.601,1.226
771.867,1.229
772.133,1.226
772.399,1.219
772.665,1.207
772.931,1.202
773.197,1.207
773.464,1.220
773.730,1.228
773.996,1.229
774.262,1.230
774.528,1.231
774.795,1.232
775.061,1.234
775.327,1.234
775.594,1.231
775.860,1.224
776.126,1.213
776.393,1.201
776.659,1.194
776.926,1.190
777.193,1.192
777.459,1.194
777.726,1.197
777.992,1.198
778.259,1.195
778.526,1.196
778.793,1.198
779.059,1.202
779.326,1.206
779.593,1.210
779.860,1.217
780.127,1.218
780.394,1.216
780.661,1.212
780.928,1.205
781.195,1.198
781.462,1.190
781.729,1.190
781.996,1.194
782.263,1.200
782.530,1.209
782.797,1.215
783.064,1.214
783.332,1.206
783.599,1.199
783.866,1.198
784.134,1.197
784.401,1.195
784.668,1.195
784.936,1.196
785.203,1.193
785.470,1.186
785.738,1.184
786.005,1.185
786.273,1.184
786.541,1.180
786.808,1.180
787.076,1.185
787.343,1.190
787.611,1.197
787.879,1.204
788.146,1.209
788.414,1.212
788.682,1.210
788.950,1.206
789.217,1.203
789.485,1.212
789.753,1.220
790.021,1.219
790.289,1.206
790.557,1.191
790.825,1.183
791.093,1.189
791.361,1.201
791.629,1.211
791.897,1.215
792.165,1.215
792.433,1.211
792.701,1.202
792.969,1.189
793.237,1.181
793.505,1.186
793.773,1.197
794.042,1.200
794.310,1.195
794.578,1.191
794.846,1.191
795.115,1.192
795.383,1.194
795.651,1.202
795.920,1.206
796.188,1.206
796.456,1.206
796.725,1.208
796.993,1.213
797.261,1.214
797.530,1.211
797.798,1.208
798.067,1.211
798.335,1.217
798.604,1.215
798.872,1.204
799.141,1.194
799.409,1.190
799.678,1.195
799.946,1.203
800.215,1.209
800.483,1.206
800.752,1.202
801.020,1.198
801.289,1.199
801.558,1.203
801.826,1.207
802.095,1.204
802.363,1.200
802.632,1.199
802.901,1.203
803.169,1.203
803.438,1.202
803.707,1.196
803.976,1.190
804.244,1.189
804.513,1.194
804.782,1.196
805.050,1.194
805.319,1.193
805.588,1.199
805.857,1.207
806.125,1.209
806.394,1.207
806.663,1.200
806.931,1.195
807.200,1.193
807.469,1.194
807.738,1.193
808.006,1.192
808.275,1.198
808.544,1.211
808.813,1.222
809.082,1.219
809.350,1.207
809.619,1.197
809.888,1.194
810.157,1.190
810.425,1.187
810.694,1.187
810.963,1.192
811.232,1.193
811.500,1.189
811.769,1.182
812.038,1.181
812.306,1.188
812.575,1.200
812.844,1.207
813.113,1.208
813.381,1.201
813.650,1.201
813.919,1.206
814.187,1.213
814.456,1.216
814.725,1.219
814.993,1.218
815.262,1.215
815.531,1.209
815.799,1.206
816.068,1.202
816.336,1.196
816.605,1.193
816.873,1.197
817.142,1.206
817.411,1.214
817.679,1.216
817.948,1.221
818.216,1.230
818.485,1.253
818.753,1.269
819.021,1.256
819.290,1.225
819.558,1.201
819.827,1.202
820.095,1.209
820.363,1.210
820.632,1.208
820.900,1.204
821.168,1.205
821.437,1.207
821.705,1.211
821.973,1.212
822.241,1.212
822.509,1.213
822.777,1.211
823.046,1.210
823.314,1.213
823.582,1.220
823.850,1.225
824.118,1.228
824.386,1.224
824.654,1.211
824.922,1.196
825.190,1.186
825.457,1.190
825.725,1.199
825.993,1.199
826.261,1.197
826.529,1.199
826.796,1.205
827.064,1.208
827.332,1.205
827.599,1.207
827.867,1.213
828.134,1.216
828.402,1.210
828.669,1.202
828.937,1.197
829.204,1.206
829.471,1.222
829.739,1.233
830.006,1.234
830.273,1.227
830.540,1.218
830.807,1.209
831.075,1.205
831.342,1.209
831.609,1.211
831.876,1.212
832.142,1.212
832.409,1.214
832.676,1.210
832.943,1.202
833.210,1.195
833.476,1.193
833.743,1.196
834.010,1.199
834.276,1.193
834.543,1.186
834.809,1.187
835.076,1.193
835.342,1.197
835.608,1.204
835.874,1.211
836.141,1.213
836.407,1.208
836.673,1.202
836.939,1.199
837.205,1.195
837.471,1.193
837.737,1.194
838.002,1.194
838.268,1.195
838.534,1.195
838.799,1.195
839.065,1.200
839.330,1.205
839.596,1.209
839.861,1.213
840.127,1.218
840.392,1.219
840.657,1.216
840.922,1.216
841.187,1.220
841.452,1.221
841.717,1.219
841.982,1.213
842.247,1.202
842.511,1.193
842.776,1.192
843.041,1.198
843.305,1.198
843.570,1.196
843.834,1.195
844.098,1.192
844.362,1.190
844.627,1.185
844.891,1.184
845.155,1.184
845.419,1.186
845.682,1.188
845.946,1.192
846.210,1.198
846.474,1.202
846.737,1.207
847.001,1.208
847.264,1.205
847.527,1.204
847.790,1.205
848.054,1.204
848.317,1.196
848.580,1.188
848.843,1.188
849.105,1.199
849.368,1.212
849.631,1.220
849.893,1.223
850.156,1.227
850.418,1.228
850.680,1.222
850.943,1.215
851.205,1.215
851.467,1.218
851.729,1.215
851.991,1.214
852.252,1.218
852.514,1.226
852.776,1.228
853.037,1.229
853.298,1.225
853.560,1.215
853.821,1.201
854.082,1.188
854.343,1.189
854.604,1.202
854.865,1.223
855.126,1.236
855.386,1.243
855.647,1.244
855.907,1.240
856.168,1.230
856.428,1.217
856.688,1.210
856.948,1.200
857.208,1.191
857.468,1.185
857.727,1.188
857.987,1.196
858.247,1.205
858.506,1.217
858.765,1.223
859.024,1.215
859.284,1.203
859.543,1.190
859.801,1.187
860.060,1.190
860.319,1.205
860.577,1.216
860.836,1.222
861.094,1.221
861.352,1.220
861.611,1.216
861.869,1.207
862.127,1.198
862.384,1.198
862.642,1.201
862.900,1.211
863.157,1.215
863.414,1.213
863.672,1.204
863.929,1.193
864.186,1.190
864.443,1.193
864.699,1.198
864.956,1.201
865.212,1.196
865.469,1.193
865.725,1.198
865.981,1.209
866.237,1.216
866.493,1.214
866.749,1.201
867.005,1.191
867.260,1.181
867.516,1.181
867.771,1.183
868.026,1.191
868.282,1.201
868.536,1.209
868.791,1.208
869.046,1.200
869.301,1.193
869.555,1.191
869.809,1.199
870.064,1.206
870.318,1.214
870.572,1.217
870.826,1.209
871.079,1.202
871.333,1.196
871.586,1.202
871.840,1.202
872.093,1.202
872.346,1.205
872.599,1.215
872.852,1.227
873.105,1.230
873.357,1.223
873.610,1.214
873.862,1.213
874.114,1.218
874.366,1.221
874.618,1.214
874.870,1.197
875.121,1.184
875.373,1.180
875.624,1.186
875.876,1.191
876.127,1.190
876.378,1.188
876.629,1.188
876.879,1.195
877.130,1.202
877.381,1.200
877.631,1.191
877.881,1.185
878.131,1.193
878.381,1.207
878.631,1.224
878.881,1.230
879.130,1.230
879.380,1.223
879.629,1.216
879.878,1.208
880.127,1.204
880.376,1.208
880.625,1.220
880.873,1.227
881.122,1.227
881.370,1.222
881.618,1.216
881.866,1.208
882.114,1.199
882.362,1.194
882.610,1.199
882.857,1.207
883.105,1.213
883.352,1.205
883.599,1.196
883.846,1.188
884.093,1.187
884.340,1.193
884.586,1.201
884.833,1.211
885.079,1.213
885.325,1.210
885.571,1.207
885.817,1.206
886.063,1.208
886.309,1.209
886.554,1.214
886.800,1.214
887.045,1.216
887.290,1.208
887.535,1.200
887.780,1.197
888.025,1.206
888.270,1.222
888.514,1.236
888.758,1.237
889.003,1.230
889.247,1.217
889.491,1.216
889.735,1.222
889.978,1.230
890.222,1.230
890.465,1.224
890.709,1.216
890.952,1.206
891.195,1.197
891.438,1.195
891.681,1.192
891.923,1.192
892.166,1.195
892.408,1.198
892.651,1.194
892.893,1.189
893.135,1.188
893.377,1.195
893.619,1.200
893.861,1.207
894.102,1.212
894.344,1.225
894.585,1.237
894.826,1.241
895.067,1.232
895.308,1.219
895.549,1.208
895.790,1.198
896.031,1.190
896.271,1.195
896.512,1.207
896.752,1.216
896.992,1.214
897.232,1.205
897.472,1.199
897.712,1.205
897.952,1.218
898.191,1.227
898.431,1.227
898.670,1.229
898.910,1.233
899.149,1.243
899.388,1.246
899.627,1.244
899.866,1.234
900.105,1.223
900.343,1.217
900.582,1.216
900.820,1.221
901.059,1.229
901.297,1.235
901.535,1.228
901.773,1.212
902.011,1.198
902.249,1.188
902.487,1.184
902.725,1.185
902.963,1.191
903.200,1.196
903.438,1.198
903.675,1.201
903.912,1.205
904.150,1.212
904.387,1.214
904.624,1.208
904.861,1.198
905.098,1.193
905.334,1.197
905.571,1.198
905.808,1.200
906.045,1.206
906.281,1.212
906.518,1.213
906.754,1.212
906.990,1.213
907.227,1.213
907.463,1.205
907.699,1.199
907.935,1.203
908.171,1.212
908.407,1.212
908.643,1.206
908.879,1.202
909.115,1.210
909.350,1.218
909.586,1.223
909.822,1.225
910.057,1.232
910.293,1.247
910.528,1.254
910.764,1.252
910.999,1.248
911.235,1.244
911.470,1.246
911.706,1.239
911.941,1.236
912.176,1.225
912.412,1.215
912.647,1.212
912.882,1.215
913.117,1.218
913.352,1.212
913.588,1.203
913.823,1.198
914.058,1.198
914.293,1.201
914.528,1.198
914.763,1.194
914.999,1.191
915.234,1.195
915.469,1.198
915.704,1.200
915.939,1.202
916.174,1.203
916.409,1.206
916.645,1.214
916.880,1.220
917.115,1.220
917.350,1.214
917.586,1.211
917.821,1.214
918.056,1.220
918.292,1.228
918.527,1.227
918.763,1.217
918.998,1.206
919.234,1.208
919.469,1.220
919.705,1.227
919.940,1.225
920.176,1.220
920.412,1.224
920.648,1.227
920.884,1.223
921.120,1.214
921.356,1.207
921.592,1.204
921.828,1.203
922.065,1.206
922.301,1.215
922.537,1.227
922.774,1.228
923.011,1.216
923.247,1.203
923.484,1.204
923.721,1.216
923.958,1.226
924.195,1.225
924.433,1.218
924.670,1.205
924.908,1.194
925.145,1.193
925.383,1.204
925.621,1.216
925.859,1.225
926.097,1.229
926.335,1.229
926.574,1.227
926.813,1.225
927.051,1.224
927.290,1.222
927.529,1.227
927.769,1.236
928.008,1.241
928.248,1.231
928.487,1.218
928.727,1.213
928.967,1.221
929.208,1.229
929.448,1.230
929.689,1.222
929.930,1.211
930.171,1.203
930.413,1.203
930.654,1.206
930.896,1.204
931.138,1.198
931.380,1.193
931.623,1.195
931.865,1.201
932.108,1.209
932.352,1.213
932.595,1.215
932.839,1.217
933.083,1.215
933.327,1.210
933.571,1.202
933.816,1.205
934.061,1.213
934.307,1.215
934.552,1.205
934.798,1.199
935.045,1.199
935.291,1.203
935.538,1.207
935.785,1.212
936.033,1.220
936.281,1.225
936.529,1.225
936.777,1.223
937.026,1.216
937.275,1.211
937.525,1.202
937.775,1.196
938.025,1.195
938.276,1.196
938.527,1.198
938.778,1.196
939.030,1.193
939.282,1.191
939.535,1.195
939.788,1.200
940.041,1.198
940.295,1.193
940.550,1.194
940.804,1.204
941.059,1.212
941.315,1.210
941.571,1.202
941.828,1.196
942.085,1.196
942.342,1.199
942.600,1.203
942.858,1.206
943.117,1.205
943.377,1.202
943.636,1.198
943.897,1.195
944.158,1.195
944.419,1.199
944.681,1.204
944.944,1.208
945.207,1.213
945.470,1.220
945.734,1.226
945.999,1.234
946.264,1.241
946.530,1.242
946.797,1.241
947.064,1.235
947.331,1.227
947.600,1.212
947.869,1.197
948.138,1.191
948.408,1.191
948.679,1.197
948.950,1.200
949.222,1.200
949.495,1.196
949.768,1.198
950.043,1.208
