Wavelength (nm),Intensity Source #112,,C:/Users/Brend/Desktop/LED Spectras v2/Spectrometer Data.sp,,,Source #112,
379.792,1.844,,2018-06-14 10:28:06,,Integration Time,136 ms,
380.000,1.842,,Analyze Light,,Number of Scans to Average,25,
380.209,1.839,,,,Smoothing,1,
380.418,1.851
380.627,1.872
380.837,1.889
381.048,1.895
381.259,1.892
381.471,1.890
381.683,1.894
381.896,1.901
382.110,1.903
382.324,1.915
382.538,1.931
382.753,1.947
382.969,1.943
383.185,1.934
383.402,1.924
383.619,1.929
383.837,1.938
384.055,1.958
384.274,1.974
384.493,1.987
384.712,1.990
384.932,1.995
385.153,2.002
385.374,2.011
385.596,2.022
385.818,2.038
386.040,2.056
386.263,2.070
386.487,2.074
386.710,2.074
386.935,2.067
387.159,2.066
387.385,2.062
387.610,2.062
387.836,2.064
388.063,2.073
388.289,2.082
388.517,2.088
388.744,2.086
388.972,2.097
389.201,2.106
389.430,2.119
389.659,2.126
389.889,2.139
390.119,2.150
390.349,2.156
390.580,2.164
390.811,2.167
391.042,2.169
391.274,2.169
391.507,2.171
391.739,2.171
391.972,2.168
392.205,2.173
392.439,2.186
392.673,2.201
392.907,2.210
393.142,2.220
393.377,2.230
393.612,2.244
393.848,2.249
394.084,2.253
394.320,2.254
394.557,2.265
394.794,2.273
395.031,2.287
395.269,2.297
395.507,2.308
395.745,2.311
395.983,2.315
396.222,2.321
396.461,2.342
396.700,2.365
396.940,2.382
397.180,2.383
397.420,2.379
397.660,2.375
397.901,2.372
398.142,2.375
398.383,2.379
398.625,2.381
398.866,2.391
399.108,2.409
399.351,2.438
399.593,2.442
399.836,2.438
400.079,2.425
400.322,2.424
400.566,2.422
400.809,2.426
401.053,2.434
401.298,2.449
401.542,2.462
401.787,2.477
402.031,2.485
402.277,2.491
402.522,2.492
402.767,2.498
403.013,2.495
403.259,2.495
403.505,2.494
403.752,2.501
403.998,2.509
404.245,2.526
404.492,2.543
404.739,2.556
404.986,2.561
405.234,2.568
405.482,2.572
405.730,2.575
405.978,2.576
406.226,2.575
406.475,2.565
406.723,2.559
406.972,2.567
407.221,2.589
407.470,2.608
407.720,2.620
407.969,2.617
408.219,2.620
408.469,2.628
408.719,2.644
408.969,2.651
409.219,2.660
409.470,2.663
409.720,2.672
409.971,2.680
410.222,2.700
410.473,2.709
410.724,2.709
410.976,2.709
411.227,2.715
411.479,2.720
411.731,2.725
411.983,2.728
412.235,2.739
412.487,2.743
412.740,2.752
412.992,2.759
413.245,2.771
413.497,2.776
413.750,2.777
414.003,2.768
414.257,2.758
414.510,2.753
414.763,2.760
415.017,2.771
415.270,2.782
415.524,2.785
415.778,2.788
416.032,2.790
416.286,2.800
416.540,2.805
416.794,2.811
417.049,2.811
417.303,2.814
417.558,2.821
417.812,2.826
418.067,2.832
418.322,2.833
418.577,2.831
418.832,2.828
419.088,2.820
419.343,2.821
419.598,2.816
419.854,2.820
420.109,2.822
420.365,2.835
420.621,2.842
420.876,2.846
421.132,2.844
421.388,2.844
421.645,2.841
421.901,2.842
422.157,2.845
422.413,2.854
422.670,2.857
422.926,2.858
423.183,2.855
423.439,2.868
423.696,2.886
423.953,2.920
424.210,2.944
424.467,2.958
424.724,2.956
424.981,2.952
425.238,2.957
425.495,2.976
425.753,2.995
426.010,3.018
426.267,3.042
426.525,3.081
426.782,3.117
427.040,3.157
427.298,3.195
427.555,3.248
427.813,3.297
428.071,3.347
428.329,3.387
428.587,3.434
428.845,3.480
429.103,3.534
429.361,3.587
429.619,3.649
429.878,3.713
430.136,3.789
430.394,3.866
430.653,3.960
430.911,4.061
431.170,4.174
431.428,4.277
431.687,4.383
431.946,4.490
432.204,4.617
432.463,4.746
432.722,4.883
432.981,5.016
433.240,5.169
433.499,5.326
433.758,5.500
434.017,5.662
434.276,5.835
434.535,6.006
434.794,6.203
435.053,6.405
435.312,6.620
435.572,6.830
435.831,7.066
436.090,7.314
436.350,7.589
436.609,7.870
436.869,8.159
437.128,8.440
437.388,8.731
437.647,9.048
437.907,9.393
438.166,9.739
438.426,10.083
438.686,10.434
438.946,10.820
439.205,11.225
439.465,11.661
439.725,12.113
439.985,12.585
440.245,13.049
440.505,13.526
440.765,14.012
441.025,14.522
441.285,15.039
441.545,15.593
441.805,16.168
442.065,16.778
442.325,17.400
442.585,18.063
442.846,18.756
443.106,19.502
443.366,20.275
443.626,21.072
443.887,21.889
444.147,22.753
444.407,23.654
444.668,24.601
444.928,25.587
445.189,26.630
445.449,27.718
445.710,28.863
445.970,30.059
446.231,31.315
446.491,32.628
446.752,34.008
447.012,35.439
447.273,36.934
447.534,38.473
447.794,40.063
448.055,41.695
448.316,43.419
448.577,45.252
448.837,47.178
449.098,49.157
449.359,51.163
449.620,53.189
449.881,55.242
450.142,57.340
450.403,59.495
450.664,61.704
450.924,63.946
451.185,66.203
451.446,68.474
451.707,70.722
451.969,72.975
452.230,75.193
452.491,77.377
452.752,79.475
453.013,81.461
453.274,83.256
453.535,84.788
453.796,86.035
454.058,87.072
454.319,87.955
454.580,88.731
454.841,89.401
455.103,89.982
455.364,90.481
455.625,90.903
455.887,91.244
456.148,91.503
456.409,91.690
456.671,91.818
456.932,91.887
457.194,91.897
457.455,91.853
457.716,91.755
457.978,91.615
458.239,91.431
458.501,91.204
458.763,90.913
459.024,90.555
459.286,90.122
459.547,89.615
459.809,89.019
460.071,88.327
460.332,87.535
460.594,86.628
460.856,85.568
461.117,84.309
461.379,82.843
461.641,81.208
461.903,79.478
462.164,77.718
462.426,75.957
462.688,74.215
462.950,72.478
463.212,70.772
463.474,69.087
463.736,67.435
463.998,65.832
464.260,64.318
464.522,62.890
464.784,61.522
465.046,60.189
465.308,58.909
465.570,57.696
465.832,56.557
466.094,55.474
466.356,54.436
466.618,53.422
466.880,52.438
467.142,51.484
467.405,50.566
467.667,49.705
467.929,48.861
468.191,48.048
468.454,47.213
468.716,46.404
468.978,45.589
469.241,44.811
469.503,44.033
469.765,43.290
470.028,42.548
470.290,41.827
470.552,41.104
470.815,40.394
471.077,39.669
471.340,38.932
471.602,38.179
471.865,37.430
472.128,36.688
472.390,35.957
472.653,35.227
472.915,34.486
473.178,33.739
473.441,32.975
473.703,32.213
473.966,31.426
474.229,30.646
474.492,29.874
474.755,29.120
475.017,28.387
475.280,27.674
475.543,26.968
475.806,26.247
476.069,25.512
476.332,24.798
476.595,24.118
476.858,23.455
477.121,22.798
477.384,22.149
477.647,21.543
477.910,20.960
478.173,20.396
478.436,19.836
478.699,19.300
478.962,18.772
479.226,18.275
479.489,17.775
479.752,17.296
480.015,16.824
480.279,16.376
480.542,15.927
480.805,15.494
481.069,15.079
481.332,14.702
481.595,14.335
481.859,13.999
482.122,13.668
482.386,13.343
482.649,13.009
482.913,12.690
483.177,12.379
483.440,12.075
483.704,11.784
483.967,11.524
484.231,11.282
484.495,11.041
484.759,10.789
485.022,10.538
485.286,10.289
485.550,10.052
485.814,9.804
486.078,9.562
486.342,9.323
486.606,9.114
486.869,8.915
487.133,8.729
487.397,8.540
487.662,8.351
487.926,8.146
488.190,7.935
488.454,7.725
488.718,7.530
488.982,7.341
489.246,7.167
489.511,6.983
489.775,6.804
490.039,6.619
490.304,6.438
490.568,6.251
490.832,6.074
491.097,5.909
491.361,5.771
491.626,5.629
491.890,5.486
492.155,5.335
492.419,5.197
492.684,5.052
492.949,4.913
493.213,4.772
493.478,4.651
493.743,4.518
494.008,4.382
494.272,4.247
494.537,4.140
494.802,4.043
495.067,3.955
495.332,3.865
495.597,3.790
495.862,3.703
496.127,3.622
496.392,3.529
496.657,3.443
496.922,3.350
497.187,3.271
497.452,3.205
497.718,3.156
497.983,3.093
498.248,3.026
498.513,2.953
498.779,2.906
499.044,2.863
499.310,2.813
499.575,2.748
499.841,2.694
500.106,2.652
500.372,2.612
500.637,2.571
500.903,2.546
501.168,2.518
501.434,2.483
501.700,2.431
501.966,2.388
502.231,2.345
502.497,2.312
502.763,2.277
503.029,2.248
503.295,2.219
503.561,2.192
503.827,2.168
504.093,2.147
504.359,2.128
504.625,2.112
504.891,2.092
505.157,2.076
505.423,2.050
505.690,2.019
505.956,1.987
506.222,1.971
506.489,1.972
506.755,1.975
507.021,1.971
507.288,1.963
507.554,1.948
507.821,1.934
508.087,1.919
508.354,1.914
508.621,1.903
508.887,1.884
509.154,1.865
509.421,1.851
509.687,1.834
509.954,1.813
510.221,1.796
510.488,1.789
510.755,1.786
511.022,1.784
511.289,1.773
511.556,1.758
511.823,1.743
512.090,1.740
512.357,1.736
512.624,1.733
512.891,1.722
513.159,1.706
513.426,1.688
513.693,1.675
513.960,1.672
514.228,1.673
514.495,1.673
514.763,1.673
515.030,1.668
515.298,1.657
515.565,1.647
515.833,1.639
516.100,1.632
516.368,1.625
516.636,1.621
516.904,1.622
517.171,1.619
517.439,1.617
517.707,1.610
517.975,1.607
518.243,1.604
518.511,1.598
518.779,1.582
519.047,1.578
519.315,1.578
519.583,1.576
519.851,1.559
520.119,1.545
520.387,1.540
520.656,1.539
520.924,1.537
521.192,1.539
521.461,1.544
521.729,1.551
521.997,1.560
522.266,1.565
522.534,1.565
522.803,1.561
523.071,1.550
523.340,1.533
523.609,1.513
523.877,1.504
524.146,1.501
524.415,1.504
524.684,1.507
524.952,1.504
525.221,1.504
525.490,1.513
525.759,1.524
526.028,1.523
526.297,1.500
526.566,1.479
526.835,1.471
527.104,1.477
527.373,1.485
527.642,1.486
527.912,1.476
528.181,1.468
528.450,1.467
528.719,1.475
528.989,1.493
529.258,1.506
529.528,1.507
529.797,1.494
530.067,1.486
530.336,1.481
530.606,1.475
530.875,1.463
531.145,1.454
531.414,1.456
531.684,1.467
531.954,1.471
532.224,1.466
532.493,1.453
532.763,1.447
533.033,1.448
533.303,1.452
533.573,1.454
533.843,1.444
534.113,1.433
534.383,1.422
534.653,1.424
534.923,1.430
535.193,1.440
535.463,1.452
535.733,1.462
536.004,1.470
536.274,1.474
536.544,1.468
536.814,1.459
537.085,1.450
537.355,1.456
537.626,1.466
537.896,1.472
538.166,1.470
538.437,1.464
538.707,1.457
538.978,1.454
539.249,1.462
539.519,1.469
539.790,1.468
540.061,1.467
540.331,1.475
540.602,1.495
540.873,1.502
541.144,1.498
541.414,1.487
541.685,1.482
541.956,1.480
542.227,1.475
542.498,1.465
542.769,1.460
543.040,1.465
543.311,1.480
543.582,1.495
543.853,1.500
544.124,1.500
544.396,1.503
544.667,1.504
544.938,1.499
545.209,1.475
545.480,1.456
545.752,1.447
546.023,1.455
546.294,1.457
546.566,1.453
546.837,1.446
547.109,1.439
547.380,1.431
547.652,1.424
547.923,1.423
548.195,1.433
548.466,1.448
548.738,1.462
549.009,1.463
549.281,1.458
549.553,1.446
549.824,1.431
550.096,1.418
550.368,1.411
550.640,1.410
550.911,1.414
551.183,1.428
551.455,1.452
551.727,1.467
551.999,1.460
552.271,1.439
552.543,1.423
552.815,1.416
553.087,1.423
553.359,1.433
553.631,1.441
553.903,1.442
554.175,1.445
554.447,1.451
554.719,1.453
554.991,1.449
555.263,1.441
555.535,1.434
555.808,1.427
556.080,1.418
556.352,1.414
556.624,1.412
556.897,1.411
557.169,1.409
557.441,1.407
557.714,1.403
557.986,1.403
558.258,1.400
558.531,1.408
558.803,1.414
559.076,1.420
559.348,1.415
559.621,1.408
559.893,1.406
560.166,1.408
560.438,1.409
560.711,1.404
560.983,1.398
561.256,1.398
561.528,1.405
561.801,1.418
562.074,1.429
562.346,1.438
562.619,1.442
562.892,1.440
563.164,1.435
563.437,1.433
563.710,1.431
563.983,1.425
564.255,1.419
564.528,1.423
564.801,1.434
565.074,1.442
565.346,1.436
565.619,1.430
565.892,1.430
566.165,1.428
566.438,1.417
566.711,1.406
566.984,1.403
567.257,1.406
567.529,1.411
567.802,1.421
568.075,1.429
568.348,1.430
568.621,1.425
568.894,1.418
569.167,1.415
569.440,1.409
569.713,1.400
569.986,1.395
570.259,1.391
570.532,1.397
570.805,1.401
571.078,1.407
571.351,1.411
571.625,1.413
571.898,1.407
572.171,1.395
572.444,1.386
572.717,1.394
572.990,1.405
573.263,1.404
573.536,1.391
573.809,1.376
574.083,1.372
574.356,1.380
574.629,1.400
574.902,1.414
575.175,1.415
575.448,1.398
575.721,1.384
575.995,1.376
576.268,1.378
576.541,1.388
576.814,1.399
577.087,1.408
577.361,1.411
577.634,1.411
577.907,1.401
578.180,1.386
578.453,1.377
578.727,1.380
579.000,1.385
579.273,1.392
579.546,1.404
579.820,1.419
580.093,1.423
580.366,1.415
580.639,1.400
580.913,1.388
581.186,1.383
581.459,1.383
581.732,1.380
582.005,1.379
582.279,1.378
582.552,1.381
582.825,1.381
583.098,1.382
583.372,1.385
583.645,1.389
583.918,1.394
584.191,1.396
584.464,1.394
584.738,1.392
585.011,1.391
585.284,1.389
585.557,1.386
585.831,1.390
586.104,1.402
586.377,1.419
586.650,1.426
586.923,1.424
587.196,1.413
587.470,1.400
587.743,1.393
588.016,1.389
588.289,1.393
588.562,1.397
588.835,1.396
589.109,1.390
589.382,1.384
589.655,1.381
589.928,1.379
590.201,1.377
590.474,1.385
590.747,1.396
591.020,1.406
591.293,1.410
591.567,1.409
591.840,1.401
592.113,1.388
592.386,1.373
592.659,1.363
592.932,1.361
593.205,1.366
593.478,1.370
593.751,1.368
594.024,1.368
594.297,1.367
594.570,1.372
594.843,1.382
595.116,1.392
595.389,1.393
595.662,1.386
595.934,1.387
596.207,1.395
596.480,1.406
596.753,1.412
597.026,1.409
597.299,1.403
597.572,1.397
597.844,1.395
598.117,1.387
598.390,1.379
598.663,1.373
598.936,1.374
599.208,1.381
599.481,1.387
599.754,1.390
600.026,1.381
600.299,1.368
600.572,1.360
600.844,1.361
601.117,1.361
601.390,1.361
601.662,1.361
601.935,1.358
602.207,1.357
602.480,1.357
602.752,1.357
603.025,1.353
603.297,1.353
603.570,1.365
603.842,1.383
604.115,1.396
604.387,1.400
604.660,1.395
604.932,1.390
605.204,1.389
605.477,1.397
605.749,1.410
606.021,1.420
606.294,1.423
606.566,1.414
606.838,1.409
607.110,1.410
607.383,1.420
607.655,1.425
607.927,1.428
608.199,1.428
608.471,1.427
608.743,1.419
609.015,1.411
609.287,1.405
609.559,1.407
609.831,1.414
610.103,1.417
610.375,1.416
610.647,1.407
610.919,1.399
611.191,1.395
611.463,1.396
611.735,1.397
612.007,1.391
612.278,1.385
612.550,1.380
612.822,1.385
613.094,1.391
613.365,1.395
613.637,1.399
613.909,1.400
614.180,1.401
614.452,1.393
614.723,1.383
614.995,1.373
615.266,1.373
615.538,1.385
615.809,1.398
616.081,1.400
616.352,1.396
616.623,1.390
616.895,1.387
617.166,1.382
617.437,1.377
617.709,1.377
617.980,1.380
618.251,1.387
618.522,1.394
618.793,1.408
619.065,1.423
619.336,1.420
619.607,1.407
619.878,1.397
620.149,1.404
620.420,1.409
620.691,1.403
620.962,1.401
621.232,1.403
621.503,1.400
621.774,1.391
622.045,1.382
622.316,1.387
622.586,1.397
622.857,1.409
623.128,1.411
623.398,1.407
623.669,1.399
623.940,1.389
624.210,1.379
624.481,1.381
624.751,1.386
625.021,1.387
625.292,1.382
625.562,1.379
625.833,1.379
626.103,1.378
626.373,1.375
626.643,1.376
626.914,1.377
627.184,1.385
627.454,1.390
627.724,1.392
627.994,1.387
628.264,1.379
628.534,1.369
628.804,1.365
629.074,1.369
629.344,1.379
629.614,1.382
629.884,1.378
630.154,1.368
630.424,1.358
630.693,1.350
630.963,1.342
631.233,1.338
631.502,1.342
631.772,1.354
632.041,1.367
632.311,1.372
632.581,1.376
632.850,1.375
633.119,1.368
633.389,1.355
633.658,1.347
633.928,1.352
634.197,1.365
634.466,1.382
634.735,1.392
635.004,1.388
635.274,1.378
635.543,1.369
635.812,1.370
636.081,1.373
636.350,1.373
636.619,1.369
636.888,1.368
637.157,1.370
637.426,1.374
637.694,1.373
637.963,1.367
638.232,1.360
638.501,1.355
638.769,1.356
639.038,1.363
639.307,1.375
639.575,1.383
639.844,1.379
640.112,1.370
640.381,1.357
640.649,1.355
640.917,1.357
641.186,1.363
641.454,1.366
641.722,1.367
641.991,1.364
642.259,1.354
642.527,1.349
642.795,1.348
643.063,1.346
643.331,1.342
643.599,1.338
643.867,1.343
644.135,1.351
644.403,1.362
644.671,1.367
644.939,1.373
645.206,1.379
645.474,1.385
645.742,1.380
646.009,1.364
646.277,1.354
646.545,1.353
646.812,1.364
647.080,1.375
647.347,1.384
647.615,1.381
647.882,1.366
648.149,1.352
648.417,1.344
648.684,1.348
648.951,1.360
649.219,1.369
649.486,1.371
649.753,1.363
650.020,1.349
650.287,1.338
650.554,1.333
650.821,1.334
651.088,1.336
651.355,1.346
651.622,1.353
651.889,1.357
652.155,1.351
652.422,1.349
652.689,1.355
652.956,1.363
653.222,1.376
653.489,1.394
653.755,1.406
654.022,1.401
654.288,1.383
654.555,1.371
654.821,1.370
655.088,1.374
655.354,1.377
655.620,1.382
655.887,1.387
656.153,1.388
656.419,1.384
656.685,1.380
656.951,1.379
657.217,1.372
657.483,1.363
657.749,1.356
658.015,1.358
658.281,1.363
658.547,1.360
658.813,1.354
659.079,1.348
659.345,1.345
659.610,1.345
659.876,1.346
660.142,1.349
660.407,1.353
660.673,1.356
660.939,1.359
661.204,1.358
661.470,1.354
661.735,1.349
662.000,1.349
662.266,1.351
662.531,1.351
662.796,1.351
663.062,1.349
663.327,1.347
663.592,1.345
663.857,1.344
664.122,1.345
664.388,1.346
664.653,1.351
664.918,1.358
665.183,1.360
665.448,1.362
665.712,1.365
665.977,1.371
666.242,1.370
666.507,1.352
666.772,1.333
667.037,1.322
667.301,1.328
667.566,1.334
667.831,1.340
668.095,1.341
668.360,1.343
668.624,1.344
668.889,1.349
669.153,1.349
669.418,1.350
669.682,1.351
669.946,1.357
670.211,1.368
670.475,1.377
670.739,1.387
671.004,1.399
671.268,1.422
671.532,1.444
671.796,1.434
672.060,1.412
672.324,1.388
672.588,1.391
672.852,1.400
673.116,1.434
673.380,1.462
673.644,1.447
673.908,1.405
674.172,1.366
674.436,1.366
674.700,1.368
674.963,1.372
675.227,1.371
675.491,1.367
675.754,1.362
676.018,1.357
676.282,1.359
676.545,1.359
676.809,1.354
677.072,1.346
677.336,1.343
677.599,1.348
677.863,1.351
678.126,1.354
678.389,1.359
678.653,1.363
678.916,1.360
679.179,1.351
679.442,1.350
679.706,1.355
679.969,1.362
680.232,1.368
680.495,1.377
680.758,1.384
681.021,1.382
681.284,1.369
681.547,1.357
681.810,1.359
682.073,1.372
682.336,1.381
682.599,1.377
682.862,1.370
683.125,1.371
683.388,1.377
683.651,1.380
683.913,1.374
684.176,1.365
684.439,1.353
684.702,1.345
684.964,1.344
685.227,1.348
685.490,1.359
685.752,1.371
686.015,1.375
686.277,1.370
686.540,1.358
686.802,1.346
687.065,1.343
687.327,1.347
687.590,1.354
687.852,1.353
688.115,1.345
688.377,1.338
688.639,1.334
688.902,1.337
689.164,1.344
689.426,1.359
689.689,1.371
689.951,1.374
690.213,1.368
690.475,1.362
690.737,1.359
691.000,1.355
691.262,1.353
691.524,1.356
691.786,1.366
692.048,1.376
692.310,1.374
692.572,1.358
692.834,1.341
693.096,1.338
693.358,1.349
693.620,1.365
693.882,1.377
694.144,1.378
694.406,1.370
694.668,1.361
694.930,1.354
695.192,1.352
695.453,1.352
695.715,1.356
695.977,1.357
696.239,1.353
696.501,1.351
696.762,1.354
697.024,1.360
697.286,1.356
697.548,1.350
697.809,1.342
698.071,1.338
698.333,1.336
698.594,1.337
698.856,1.343
699.118,1.348
699.379,1.354
699.641,1.365
699.902,1.374
700.164,1.375
700.426,1.367
700.687,1.356
700.949,1.351
701.210,1.346
701.472,1.342
701.733,1.336
701.995,1.335
702.256,1.338
702.518,1.343
702.779,1.344
703.041,1.354
703.302,1.368
703.563,1.371
703.825,1.362
704.086,1.349
704.348,1.347
704.609,1.353
704.871,1.366
705.132,1.376
705.393,1.370
705.655,1.357
705.916,1.347
706.177,1.347
706.439,1.351
706.700,1.357
706.961,1.362
707.223,1.362
707.484,1.347
707.745,1.328
708.007,1.309
708.268,1.299
708.529,1.292
708.790,1.284
709.052,1.279
709.313,1.281
709.574,1.286
709.835,1.290
710.097,1.285
710.358,1.274
710.619,1.260
710.881,1.249
711.142,1.241
711.403,1.234
711.664,1.232
711.926,1.230
712.187,1.235
712.448,1.242
712.709,1.250
712.970,1.256
713.232,1.259
713.493,1.262
713.754,1.260
714.015,1.262
714.277,1.265
714.538,1.272
714.799,1.283
715.060,1.290
715.322,1.291
715.583,1.284
715.844,1.276
716.105,1.268
716.367,1.261
716.628,1.261
716.889,1.261
717.150,1.255
717.411,1.245
717.673,1.245
717.934,1.253
718.195,1.260
718.457,1.256
718.718,1.247
718.979,1.242
719.240,1.247
719.502,1.258
719.763,1.268
720.024,1.270
720.286,1.270
720.547,1.263
720.808,1.257
721.069,1.254
721.331,1.256
721.592,1.263
721.853,1.268
722.115,1.271
722.376,1.270
722.638,1.270
722.899,1.268
723.160,1.263
723.422,1.255
723.683,1.246
723.944,1.243
724.206,1.242
724.467,1.241
724.729,1.242
724.990,1.254
725.252,1.265
725.513,1.260
725.775,1.245
726.036,1.231
726.298,1.231
726.559,1.237
726.821,1.241
727.082,1.241
727.344,1.240
727.605,1.238
727.867,1.235
728.128,1.233
728.390,1.233
728.652,1.242
728.913,1.254
729.175,1.264
729.436,1.267
729.698,1.269
729.960,1.266
730.221,1.258
730.483,1.240
730.745,1.234
731.007,1.235
731.268,1.244
731.530,1.250
731.792,1.254
732.054,1.258
732.315,1.261
732.577,1.263
732.839,1.255
733.101,1.245
733.363,1.237
733.625,1.236
733.887,1.238
734.149,1.241
734.411,1.249
734.673,1.257
734.935,1.260
735.197,1.255
735.459,1.256
735.721,1.260
735.983,1.257
736.245,1.243
736.507,1.236
736.769,1.241
737.031,1.251
737.293,1.251
737.555,1.246
737.818,1.239
738.080,1.235
738.342,1.234
738.604,1.234
738.867,1.234
739.129,1.233
739.391,1.230
739.654,1.229
739.916,1.229
740.178,1.236
740.441,1.245
740.703,1.249
740.966,1.245
741.228,1.238
741.491,1.236
741.753,1.240
742.016,1.240
742.278,1.242
742.541,1.242
742.804,1.248
743.066,1.254
743.329,1.256
743.592,1.249
743.854,1.246
744.117,1.249
744.380,1.255
744.643,1.254
744.905,1.248
745.168,1.247
745.431,1.246
745.694,1.245
745.957,1.243
746.220,1.240
746.483,1.236
746.746,1.232
747.009,1.241
747.272,1.259
747.535,1.273
747.798,1.272
748.061,1.261
748.324,1.248
748.588,1.242
748.851,1.242
749.114,1.243
749.377,1.244
749.641,1.242
749.904,1.244
750.167,1.250
750.431,1.255
750.694,1.260
750.958,1.262
751.221,1.257
751.485,1.247
751.748,1.239
752.012,1.245
752.275,1.259
752.539,1.262
752.803,1.255
753.066,1.242
753.330,1.235
753.594,1.232
753.857,1.233
754.121,1.240
754.385,1.248
754.649,1.254
754.913,1.256
755.177,1.259
755.441,1.256
755.705,1.246
755.969,1.236
756.233,1.240
756.497,1.247
756.761,1.251
757.025,1.245
757.289,1.240
757.553,1.240
757.818,1.245
758.082,1.253
758.346,1.256
758.610,1.258
758.875,1.255
759.139,1.252
759.404,1.243
759.668,1.239
759.932,1.242
760.197,1.252
760.462,1.256
760.726,1.254
760.991,1.251
761.255,1.254
761.520,1.257
761.785,1.253
762.049,1.240
762.314,1.228
762.579,1.227
762.844,1.239
763.109,1.250
763.374,1.251
763.639,1.248
763.903,1.241
764.168,1.238
764.433,1.236
764.699,1.242
764.964,1.248
765.229,1.247
765.494,1.243
765.759,1.239
766.024,1.238
766.290,1.241
766.555,1.247
766.820,1.251
767.086,1.253
767.351,1.254
767.616,1.255
767.882,1.252
768.147,1.248
768.413,1.244
768.678,1.242
768.944,1.244
769.209,1.249
769.475,1.257
769.741,1.263
770.006,1.269
770.272,1.271
770.538,1.269
770.804,1.263
771.070,1.258
771.335,1.261
771.601,1.268
771.867,1.269
772.133,1.264
772.399,1.257
772.665,1.250
772.931,1.250
773.197,1.258
773.464,1.270
773.730,1.279
773.996,1.281
774.262,1.280
774.528,1.278
774.795,1.278
775.061,1.282
775.327,1.281
775.594,1.275
775.860,1.264
776.126,1.251
776.393,1.240
776.659,1.233
776.926,1.231
777.193,1.235
777.459,1.242
777.726,1.245
777.992,1.243
778.259,1.237
778.526,1.238
778.793,1.239
779.059,1.247
779.326,1.255
779.593,1.264
779.860,1.271
780.127,1.270
780.394,1.265
780.661,1.261
780.928,1.256
781.195,1.250
781.462,1.243
781.729,1.242
781.996,1.244
782.263,1.248
782.530,1.255
782.797,1.257
783.064,1.255
783.332,1.246
783.599,1.240
783.866,1.241
784.134,1.244
784.401,1.246
784.668,1.248
784.936,1.247
785.203,1.245
785.470,1.237
785.738,1.231
786.005,1.226
786.273,1.224
786.541,1.221
786.808,1.223
787.076,1.228
787.343,1.235
787.611,1.244
787.879,1.254
788.146,1.254
788.414,1.254
788.682,1.249
788.950,1.249
789.217,1.247
789.485,1.256
789.753,1.263
790.021,1.259
790.289,1.245
790.557,1.231
790.825,1.229
791.093,1.238
791.361,1.253
791.629,1.265
791.897,1.269
792.165,1.264
792.433,1.255
792.701,1.240
792.969,1.227
793.237,1.221
793.505,1.229
793.773,1.239
794.042,1.237
794.310,1.231
794.578,1.227
794.846,1.231
795.115,1.232
795.383,1.233
795.651,1.240
795.920,1.246
796.188,1.248
796.456,1.248
796.725,1.250
796.993,1.258
797.261,1.262
797.530,1.264
797.798,1.262
798.067,1.265
798.335,1.269
798.604,1.262
798.872,1.247
799.141,1.234
799.409,1.228
799.678,1.230
799.946,1.236
800.215,1.240
800.483,1.242
800.752,1.243
801.020,1.245
801.289,1.245
801.558,1.243
801.826,1.242
802.095,1.237
802.363,1.237
802.632,1.242
802.901,1.251
803.169,1.253
803.438,1.248
803.707,1.238
803.976,1.229
804.244,1.230
804.513,1.236
804.782,1.238
805.050,1.236
805.319,1.239
805.588,1.249
805.857,1.257
806.125,1.261
806.394,1.259
806.663,1.249
806.931,1.239
807.200,1.236
807.469,1.239
807.738,1.241
808.006,1.242
808.275,1.248
808.544,1.263
808.813,1.276
809.082,1.274
809.350,1.261
809.619,1.252
809.888,1.245
810.157,1.241
810.425,1.234
810.694,1.232
810.963,1.235
811.232,1.233
811.500,1.227
811.769,1.222
812.038,1.227
812.306,1.239
812.575,1.252
812.844,1.260
813.113,1.261
813.381,1.254
813.650,1.250
813.919,1.253
814.187,1.259
814.456,1.263
814.725,1.262
814.993,1.258
815.262,1.254
815.531,1.252
815.799,1.252
816.068,1.245
816.336,1.235
816.605,1.231
816.873,1.235
817.142,1.247
817.411,1.256
817.679,1.260
817.948,1.265
818.216,1.276
818.485,1.303
818.753,1.322
819.021,1.305
819.290,1.267
819.558,1.240
819.827,1.242
820.095,1.253
820.363,1.257
820.632,1.257
820.900,1.258
821.168,1.260
821.437,1.265
821.705,1.268
821.973,1.269
822.241,1.267
822.509,1.265
822.777,1.260
823.046,1.256
823.314,1.258
823.582,1.263
823.850,1.267
824.118,1.268
824.386,1.267
824.654,1.255
824.922,1.239
825.190,1.227
825.457,1.233
825.725,1.241
825.993,1.240
826.261,1.233
826.529,1.228
826.796,1.228
827.064,1.225
827.332,1.222
827.599,1.228
827.867,1.244
828.134,1.253
828.402,1.249
828.669,1.240
828.937,1.238
829.204,1.246
829.471,1.258
829.739,1.265
830.006,1.263
830.273,1.256
830.540,1.248
830.807,1.239
831.075,1.238
831.342,1.246
831.609,1.256
831.876,1.262
832.142,1.266
832.409,1.267
832.676,1.261
832.943,1.246
833.210,1.235
833.476,1.232
833.743,1.239
834.010,1.245
834.276,1.242
834.543,1.235
834.809,1.235
835.076,1.241
835.342,1.244
835.608,1.251
835.874,1.257
836.141,1.259
836.407,1.257
836.673,1.254
836.939,1.252
837.205,1.247
837.471,1.241
837.737,1.239
838.002,1.237
838.268,1.238
838.534,1.241
838.799,1.243
839.065,1.249
839.330,1.251
839.596,1.253
839.861,1.255
840.127,1.260
840.392,1.264
840.657,1.265
840.922,1.270
841.187,1.273
841.452,1.273
841.717,1.272
841.982,1.268
842.247,1.258
842.511,1.248
842.776,1.247
843.041,1.251
843.305,1.246
843.570,1.239
843.834,1.235
844.098,1.233
844.362,1.231
844.627,1.230
844.891,1.233
845.155,1.237
845.419,1.239
845.682,1.242
845.946,1.247
846.210,1.253
846.474,1.255
846.737,1.258
847.001,1.255
847.264,1.249
847.527,1.243
847.790,1.244
848.054,1.244
848.317,1.236
848.580,1.230
848.843,1.232
849.105,1.246
849.368,1.260
849.631,1.268
849.893,1.272
850.156,1.277
850.418,1.278
850.680,1.264
850.943,1.256
851.205,1.256
851.467,1.261
851.729,1.255
851.991,1.246
852.252,1.251
852.514,1.261
852.776,1.267
853.037,1.268
853.298,1.262
853.560,1.252
853.821,1.239
854.082,1.230
854.343,1.235
854.604,1.252
854.865,1.274
855.126,1.287
855.386,1.292
855.647,1.287
855.907,1.279
856.168,1.264
856.428,1.249
856.688,1.241
856.948,1.227
857.208,1.219
857.468,1.221
857.727,1.234
857.987,1.245
858.247,1.253
858.506,1.264
858.765,1.267
859.024,1.257
859.284,1.242
859.543,1.232
859.801,1.231
860.060,1.233
860.319,1.247
860.577,1.261
860.836,1.272
861.094,1.277
861.352,1.275
861.611,1.267
861.869,1.250
862.127,1.241
862.384,1.243
862.642,1.251
862.900,1.262
863.157,1.268
863.414,1.266
863.672,1.253
863.929,1.236
864.186,1.234
864.443,1.243
864.699,1.255
864.956,1.256
865.212,1.242
865.469,1.234
865.725,1.239
865.981,1.253
866.237,1.263
866.493,1.262
866.749,1.251
867.005,1.241
867.260,1.232
867.516,1.229
867.771,1.229
868.026,1.234
868.282,1.246
868.536,1.249
868.791,1.244
869.046,1.234
869.301,1.230
869.555,1.234
869.809,1.243
870.064,1.250
870.318,1.255
870.572,1.258
870.826,1.252
871.079,1.246
871.333,1.241
871.586,1.244
871.840,1.246
872.093,1.245
872.346,1.250
872.599,1.263
872.852,1.278
873.105,1.287
873.357,1.284
873.610,1.274
873.862,1.268
874.114,1.269
874.366,1.272
874.618,1.265
874.870,1.247
875.121,1.230
875.373,1.226
875.624,1.233
875.876,1.242
876.127,1.247
876.378,1.244
876.629,1.242
876.879,1.242
877.130,1.246
877.381,1.244
877.631,1.236
877.881,1.232
878.131,1.237
878.381,1.253
878.631,1.270
878.881,1.276
879.130,1.269
879.380,1.257
879.629,1.247
879.878,1.242
880.127,1.243
880.376,1.249
880.625,1.259
880.873,1.267
881.122,1.270
881.370,1.268
881.618,1.261
881.866,1.252
882.114,1.241
882.362,1.236
882.610,1.242
882.857,1.253
883.105,1.258
883.352,1.249
883.599,1.238
883.846,1.229
884.093,1.230
884.340,1.239
884.586,1.252
884.833,1.260
885.079,1.260
885.325,1.255
885.571,1.251
885.817,1.251
886.063,1.256
886.309,1.261
886.554,1.267
886.800,1.270
887.045,1.273
887.290,1.265
887.535,1.253
887.780,1.247
888.025,1.253
888.270,1.269
888.514,1.282
888.758,1.284
889.003,1.272
889.247,1.254
889.491,1.248
889.735,1.254
889.978,1.264
890.222,1.262
890.465,1.254
890.709,1.245
890.952,1.238
891.195,1.235
891.438,1.235
891.681,1.235
891.923,1.237
892.166,1.241
892.408,1.242
892.651,1.238
892.893,1.232
893.135,1.230
893.377,1.232
893.619,1.238
893.861,1.244
894.102,1.252
894.344,1.264
894.585,1.277
894.826,1.281
895.067,1.270
895.308,1.256
895.549,1.241
895.790,1.234
896.031,1.233
896.271,1.243
896.512,1.256
896.752,1.263
896.992,1.259
897.232,1.249
897.472,1.243
897.712,1.250
897.952,1.265
898.191,1.273
898.431,1.275
898.670,1.280
898.910,1.288
899.149,1.296
899.388,1.295
899.627,1.287
899.866,1.274
900.105,1.261
900.343,1.256
900.582,1.256
900.820,1.261
901.059,1.271
901.297,1.278
901.535,1.272
901.773,1.255
902.011,1.237
902.249,1.225
902.487,1.224
902.725,1.228
902.963,1.237
903.200,1.236
903.438,1.233
903.675,1.235
903.912,1.243
904.150,1.254
904.387,1.257
904.624,1.249
904.861,1.238
905.098,1.234
905.334,1.240
905.571,1.243
905.808,1.243
906.045,1.247
906.281,1.253
906.518,1.256
906.754,1.259
906.990,1.260
907.227,1.256
907.463,1.243
907.699,1.236
907.935,1.240
908.171,1.252
908.407,1.255
908.643,1.253
908.879,1.250
909.115,1.256
909.350,1.263
909.586,1.269
909.822,1.272
910.057,1.282
910.293,1.296
910.528,1.303
910.764,1.298
910.999,1.289
911.235,1.281
911.470,1.281
911.706,1.277
911.941,1.275
912.176,1.268
912.412,1.259
912.647,1.259
912.882,1.263
913.117,1.265
913.352,1.259
913.588,1.247
913.823,1.245
914.058,1.246
914.293,1.249
914.528,1.245
914.763,1.241
914.999,1.238
915.234,1.237
915.469,1.239
915.704,1.242
915.939,1.242
916.174,1.238
916.409,1.239
916.645,1.249
916.880,1.262
917.115,1.268
917.350,1.263
917.586,1.256
917.821,1.253
918.056,1.259
918.292,1.267
918.527,1.267
918.763,1.257
918.998,1.248
919.234,1.254
919.469,1.271
919.705,1.283
919.940,1.280
920.176,1.273
920.412,1.274
920.648,1.273
920.884,1.270
921.120,1.263
921.356,1.258
921.592,1.253
921.828,1.247
922.065,1.246
922.301,1.254
922.537,1.264
922.774,1.272
923.011,1.265
923.247,1.255
923.484,1.251
923.721,1.259
923.958,1.267
924.195,1.270
924.433,1.266
924.670,1.257
924.908,1.244
925.145,1.242
925.383,1.251
925.621,1.261
925.859,1.263
926.097,1.263
926.335,1.263
926.574,1.266
926.813,1.268
927.051,1.268
927.290,1.266
927.529,1.273
927.769,1.286
928.008,1.293
928.248,1.279
928.487,1.264
928.727,1.259
928.967,1.274
929.208,1.283
929.448,1.283
929.689,1.275
929.930,1.264
930.171,1.252
930.413,1.244
930.654,1.242
930.896,1.239
931.138,1.234
931.380,1.230
931.623,1.235
931.865,1.242
932.108,1.250
932.352,1.256
932.595,1.261
932.839,1.268
933.083,1.265
933.327,1.255
933.571,1.242
933.816,1.242
934.061,1.251
934.307,1.255
934.552,1.246
934.798,1.241
935.045,1.242
935.291,1.251
935.538,1.254
935.785,1.257
936.033,1.262
936.281,1.268
936.529,1.273
936.777,1.273
937.026,1.265
937.275,1.257
937.525,1.247
937.775,1.241
938.025,1.234
938.276,1.230
938.527,1.228
938.778,1.226
939.030,1.224
939.282,1.223
939.535,1.229
939.788,1.238
940.041,1.240
940.295,1.237
940.550,1.237
940.804,1.245
941.059,1.253
941.315,1.250
941.571,1.243
941.828,1.237
942.085,1.238
942.342,1.242
942.600,1.245
942.858,1.243
943.117,1.235
943.377,1.226
943.636,1.223
943.897,1.225
944.158,1.232
944.419,1.240
944.681,1.244
944.944,1.250
945.207,1.258
945.470,1.267
945.734,1.273
945.999,1.281
946.264,1.284
946.530,1.281
946.797,1.275
947.064,1.270
947.331,1.265
947.600,1.256
947.869,1.244
948.138,1.233
948.408,1.228
948.679,1.231
948.950,1.237
949.222,1.238
949.495,1.237
949.768,1.244
950.043,1.258
