Wavelength (nm),Intensity Source #87,,C:/Users/Brend/Desktop/LED Spectras v2/Spectrometer Data.sp,,,Source #87,
379.792,1.981,,2018-06-14 09:49:11,,Integration Time,167 ms,
380.000,1.979,,Analyze Light,,Number of Scans to Average,25,
380.209,1.976,,,,Smoothing,1,
380.418,1.987
380.627,2.004
380.837,2.023
381.048,2.035
381.259,2.035
381.471,2.032
381.683,2.037
381.896,2.051
382.110,2.059
382.324,2.072
382.538,2.093
382.753,2.112
382.969,2.109
383.185,2.098
383.402,2.087
383.619,2.096
383.837,2.108
384.055,2.133
384.274,2.156
384.493,2.172
384.712,2.179
384.932,2.189
385.153,2.203
385.374,2.219
385.596,2.234
385.818,2.255
386.040,2.279
386.263,2.298
386.487,2.302
386.710,2.298
386.935,2.283
387.159,2.278
387.385,2.275
387.610,2.281
387.836,2.289
388.063,2.304
388.289,2.317
388.517,2.327
388.744,2.326
388.972,2.335
389.201,2.344
389.430,2.361
389.659,2.373
389.889,2.390
390.119,2.399
390.349,2.406
390.580,2.416
390.811,2.427
391.042,2.434
391.274,2.440
391.507,2.447
391.739,2.449
391.972,2.447
392.205,2.457
392.439,2.477
392.673,2.502
392.907,2.520
393.142,2.540
393.377,2.555
393.612,2.573
393.848,2.581
394.084,2.589
394.320,2.589
394.557,2.600
394.794,2.608
395.031,2.621
395.269,2.631
395.507,2.643
395.745,2.649
395.983,2.657
396.222,2.664
396.461,2.685
396.700,2.710
396.940,2.730
397.180,2.738
397.420,2.731
397.660,2.726
397.901,2.728
398.142,2.740
398.383,2.750
398.625,2.756
398.866,2.769
399.108,2.796
399.351,2.835
399.593,2.848
399.836,2.848
400.079,2.835
400.322,2.831
400.566,2.827
400.809,2.826
401.053,2.829
401.298,2.838
401.542,2.854
401.787,2.877
402.031,2.897
402.277,2.914
402.522,2.921
402.767,2.932
403.013,2.927
403.259,2.927
403.505,2.924
403.752,2.931
403.998,2.936
404.245,2.958
404.492,2.982
404.739,3.005
404.986,3.015
405.234,3.028
405.482,3.032
405.730,3.031
405.978,3.031
406.226,3.039
406.475,3.039
406.723,3.039
406.972,3.051
407.221,3.082
407.470,3.104
407.720,3.119
407.969,3.113
408.219,3.124
408.469,3.136
408.719,3.158
408.969,3.162
409.219,3.170
409.470,3.177
409.720,3.194
409.971,3.205
410.222,3.222
410.473,3.229
410.724,3.234
410.976,3.239
411.227,3.255
411.479,3.266
411.731,3.276
411.983,3.274
412.235,3.281
412.487,3.279
412.740,3.289
412.992,3.297
413.245,3.310
413.497,3.313
413.750,3.315
414.003,3.307
414.257,3.303
414.510,3.300
414.763,3.313
415.017,3.323
415.270,3.332
415.524,3.328
415.778,3.324
416.032,3.322
416.286,3.337
416.540,3.349
416.794,3.359
417.049,3.350
417.303,3.346
417.558,3.344
417.812,3.347
418.067,3.355
418.322,3.360
418.577,3.356
418.832,3.349
419.088,3.337
419.343,3.337
419.598,3.326
419.854,3.326
420.109,3.323
420.365,3.341
420.621,3.349
420.876,3.364
421.132,3.372
421.388,3.378
421.645,3.373
421.901,3.368
422.157,3.367
422.413,3.377
422.670,3.384
422.926,3.396
423.183,3.400
423.439,3.420
423.696,3.445
423.953,3.493
424.210,3.533
424.467,3.556
424.724,3.557
424.981,3.553
425.238,3.562
425.495,3.592
425.753,3.626
426.010,3.663
426.267,3.694
426.525,3.745
426.782,3.796
427.040,3.851
427.298,3.902
427.555,3.971
427.813,4.036
428.071,4.105
428.329,4.167
428.587,4.241
428.845,4.310
429.103,4.386
429.361,4.465
429.619,4.568
429.878,4.675
430.136,4.794
430.394,4.901
430.653,5.031
430.911,5.174
431.170,5.331
431.428,5.469
431.687,5.607
431.946,5.742
432.204,5.894
432.463,6.062
432.722,6.246
432.981,6.435
433.240,6.635
433.499,6.843
433.758,7.073
434.017,7.289
434.276,7.516
434.535,7.741
434.794,7.992
435.053,8.249
435.312,8.526
435.572,8.804
435.831,9.110
436.090,9.418
436.350,9.756
436.609,10.094
436.869,10.450
437.128,10.812
437.388,11.182
437.647,11.560
437.907,11.961
438.166,12.384
438.426,12.825
438.686,13.262
438.946,13.721
439.205,14.197
439.465,14.708
439.725,15.247
439.985,15.820
440.245,16.393
440.505,16.983
440.765,17.579
441.025,18.217
441.285,18.866
441.545,19.548
441.805,20.249
442.065,20.986
442.325,21.759
442.585,22.579
442.846,23.441
443.106,24.363
443.366,25.331
443.626,26.350
443.887,27.395
444.147,28.468
444.407,29.588
444.668,30.772
444.928,32.016
445.189,33.321
445.449,34.673
445.710,36.096
445.970,37.574
446.231,39.124
446.491,40.739
446.752,42.419
447.012,44.154
447.273,45.942
447.534,47.779
447.794,49.671
448.055,51.620
448.316,53.648
448.577,55.752
448.837,57.914
449.098,60.112
449.359,62.315
449.620,64.498
449.881,66.675
450.142,68.851
450.403,71.054
450.664,73.266
450.924,75.451
451.185,77.601
451.446,79.690
451.707,81.658
451.969,83.445
452.230,84.971
452.491,86.248
452.752,87.310
453.013,88.219
453.274,89.026
453.535,89.725
453.796,90.317
454.058,90.810
454.319,91.218
454.580,91.545
454.841,91.795
455.103,91.983
455.364,92.119
455.625,92.222
455.887,92.276
456.148,92.282
456.409,92.217
456.671,92.094
456.932,91.918
457.194,91.700
457.455,91.434
457.716,91.114
457.978,90.718
458.239,90.251
458.501,89.710
458.763,89.108
459.024,88.437
459.286,87.670
459.547,86.798
459.809,85.774
460.071,84.557
460.332,83.129
460.594,81.526
460.856,79.835
461.117,78.101
461.379,76.370
461.641,74.661
461.903,72.987
462.164,71.331
462.426,69.702
462.688,68.112
462.950,66.580
463.212,65.096
463.474,63.646
463.736,62.232
463.998,60.885
464.260,59.617
464.522,58.425
464.784,57.281
465.046,56.177
465.308,55.128
465.570,54.131
465.832,53.188
466.094,52.286
466.356,51.416
466.618,50.551
466.880,49.680
467.142,48.823
467.405,48.012
467.667,47.236
467.929,46.479
468.191,45.717
468.454,44.967
468.716,44.202
468.978,43.422
469.241,42.618
469.503,41.832
469.765,41.066
470.028,40.320
470.290,39.569
470.552,38.820
470.815,38.070
471.077,37.318
471.340,36.564
471.602,35.815
471.865,35.067
472.128,34.315
472.390,33.575
472.653,32.825
472.915,32.070
473.178,31.303
473.441,30.553
473.703,29.804
473.966,29.056
474.229,28.296
474.492,27.550
474.755,26.800
475.017,26.106
475.280,25.434
475.543,24.796
475.806,24.130
476.069,23.470
476.332,22.822
476.595,22.203
476.858,21.607
477.121,21.024
477.384,20.454
477.647,19.908
477.910,19.376
478.173,18.865
478.436,18.358
478.699,17.877
478.962,17.406
479.226,16.973
479.489,16.550
479.752,16.155
480.015,15.750
480.279,15.356
480.542,14.969
480.805,14.600
481.069,14.226
481.332,13.871
481.595,13.528
481.859,13.232
482.122,12.938
482.386,12.637
482.649,12.322
482.913,12.021
483.177,11.734
483.440,11.455
483.704,11.177
483.967,10.924
484.231,10.681
484.495,10.458
484.759,10.233
485.022,10.004
485.286,9.766
485.550,9.523
485.814,9.269
486.078,9.020
486.342,8.786
486.606,8.589
486.869,8.396
487.133,8.208
487.397,8.013
487.662,7.824
487.926,7.628
488.190,7.438
488.454,7.241
488.718,7.052
488.982,6.854
489.246,6.680
489.511,6.504
489.775,6.330
490.039,6.147
490.304,5.974
490.568,5.806
490.832,5.654
491.097,5.512
491.361,5.386
491.626,5.254
491.890,5.127
492.155,4.988
492.419,4.863
492.684,4.722
492.949,4.588
493.213,4.452
493.478,4.340
493.743,4.227
494.008,4.105
494.272,3.989
494.537,3.898
494.802,3.824
495.067,3.755
495.332,3.678
495.597,3.604
495.862,3.517
496.127,3.440
496.392,3.355
496.657,3.273
496.922,3.187
497.187,3.115
497.452,3.059
497.718,3.020
497.983,2.973
498.248,2.922
498.513,2.861
498.779,2.820
499.044,2.784
499.310,2.734
499.575,2.667
499.841,2.609
500.106,2.567
500.372,2.529
500.637,2.495
500.903,2.476
501.168,2.453
501.434,2.416
501.700,2.361
501.966,2.323
502.231,2.287
502.497,2.261
502.763,2.227
503.029,2.199
503.295,2.175
503.561,2.155
503.827,2.138
504.093,2.116
504.359,2.091
504.625,2.072
504.891,2.053
505.157,2.037
505.423,2.009
505.690,1.981
505.956,1.953
506.222,1.939
506.489,1.939
506.755,1.942
507.021,1.940
507.288,1.931
507.554,1.912
507.821,1.895
508.087,1.883
508.354,1.887
508.621,1.881
508.887,1.865
509.154,1.845
509.421,1.831
509.687,1.812
509.954,1.791
510.221,1.772
510.488,1.771
510.755,1.775
511.022,1.780
511.289,1.766
511.556,1.748
511.823,1.731
512.090,1.731
512.357,1.723
512.624,1.716
512.891,1.705
513.159,1.697
513.426,1.687
513.693,1.677
513.960,1.671
514.228,1.667
514.495,1.662
514.763,1.656
515.030,1.649
515.298,1.640
515.565,1.637
515.833,1.635
516.100,1.632
516.368,1.630
516.636,1.626
516.904,1.626
517.171,1.618
517.439,1.613
517.707,1.603
517.975,1.599
518.243,1.596
518.511,1.590
518.779,1.575
519.047,1.570
519.315,1.569
519.583,1.568
519.851,1.548
520.119,1.536
520.387,1.531
520.656,1.531
520.924,1.529
521.192,1.529
521.461,1.536
521.729,1.546
521.997,1.554
522.266,1.556
522.534,1.549
522.803,1.543
523.071,1.535
523.340,1.520
523.609,1.499
523.877,1.485
524.146,1.483
524.415,1.494
524.684,1.503
524.952,1.505
525.221,1.500
525.490,1.503
525.759,1.512
526.028,1.515
526.297,1.499
526.566,1.485
526.835,1.474
527.104,1.476
527.373,1.478
527.642,1.477
527.912,1.470
528.181,1.464
528.450,1.465
528.719,1.473
528.989,1.486
529.258,1.505
529.528,1.510
529.797,1.504
530.067,1.495
530.336,1.488
530.606,1.480
530.875,1.468
531.145,1.463
531.414,1.464
531.684,1.467
531.954,1.466
532.224,1.458
532.493,1.440
532.763,1.427
533.033,1.426
533.303,1.438
533.573,1.450
533.843,1.448
534.113,1.442
534.383,1.436
534.653,1.441
534.923,1.447
535.193,1.452
535.463,1.460
535.733,1.468
536.004,1.475
536.274,1.473
536.544,1.463
536.814,1.452
537.085,1.440
537.355,1.443
537.626,1.455
537.896,1.466
538.166,1.467
538.437,1.461
538.707,1.453
538.978,1.453
539.249,1.462
539.519,1.469
539.790,1.466
540.061,1.462
540.331,1.469
540.602,1.485
540.873,1.492
541.144,1.492
541.414,1.486
541.685,1.482
541.956,1.481
542.227,1.477
542.498,1.468
542.769,1.463
543.040,1.468
543.311,1.482
543.582,1.501
543.853,1.509
544.124,1.516
544.396,1.518
544.667,1.522
544.938,1.516
545.209,1.492
545.480,1.474
545.752,1.464
546.023,1.469
546.294,1.462
546.566,1.448
546.837,1.432
547.109,1.427
547.380,1.428
547.652,1.426
547.923,1.425
548.195,1.431
548.466,1.446
548.738,1.461
549.009,1.461
549.281,1.450
549.553,1.429
549.824,1.405
550.096,1.392
550.368,1.393
550.640,1.401
550.911,1.412
551.183,1.426
551.455,1.447
551.727,1.457
551.999,1.449
552.271,1.431
552.543,1.416
552.815,1.411
553.087,1.416
553.359,1.426
553.631,1.433
553.903,1.434
554.175,1.437
554.447,1.443
554.719,1.447
554.991,1.445
555.263,1.439
555.535,1.430
555.808,1.423
556.080,1.415
556.352,1.410
556.624,1.405
556.897,1.404
557.169,1.407
557.441,1.408
557.714,1.406
557.986,1.402
558.258,1.398
558.531,1.407
558.803,1.418
559.076,1.426
559.348,1.416
559.621,1.404
559.893,1.399
560.166,1.402
560.438,1.401
560.711,1.396
560.983,1.392
561.256,1.394
561.528,1.403
561.801,1.414
562.074,1.422
562.346,1.429
562.619,1.433
562.892,1.433
563.164,1.431
563.437,1.433
563.710,1.433
563.983,1.423
564.255,1.408
564.528,1.407
564.801,1.416
565.074,1.425
565.346,1.419
565.619,1.414
565.892,1.417
566.165,1.415
566.438,1.402
566.711,1.385
566.984,1.380
567.257,1.383
567.529,1.392
567.802,1.410
568.075,1.423
568.348,1.424
568.621,1.419
568.894,1.416
569.167,1.417
569.440,1.411
569.713,1.398
569.986,1.389
570.259,1.385
570.532,1.391
570.805,1.396
571.078,1.398
571.351,1.401
571.625,1.406
571.898,1.405
572.171,1.396
572.444,1.385
572.717,1.388
572.990,1.396
573.263,1.396
573.536,1.386
573.809,1.368
574.083,1.361
574.356,1.370
574.629,1.391
574.902,1.409
575.175,1.409
575.448,1.395
575.721,1.382
575.995,1.376
576.268,1.377
576.541,1.385
576.814,1.395
577.087,1.402
577.361,1.404
577.634,1.401
577.907,1.386
578.180,1.368
578.453,1.358
578.727,1.363
579.000,1.367
579.273,1.376
579.546,1.389
579.820,1.408
580.093,1.412
580.366,1.400
580.639,1.382
580.913,1.373
581.186,1.376
581.459,1.381
581.732,1.374
582.005,1.368
582.279,1.365
582.552,1.370
582.825,1.373
583.098,1.376
583.372,1.380
583.645,1.387
583.918,1.394
584.191,1.395
584.464,1.393
584.738,1.394
585.011,1.394
585.284,1.388
585.557,1.380
585.831,1.382
586.104,1.396
586.377,1.416
586.650,1.425
586.923,1.422
587.196,1.409
587.470,1.394
587.743,1.385
588.016,1.383
588.289,1.392
588.562,1.402
588.835,1.405
589.109,1.397
589.382,1.385
589.655,1.376
589.928,1.370
590.201,1.369
590.474,1.380
590.747,1.394
591.020,1.405
591.293,1.409
591.567,1.406
591.840,1.397
592.113,1.384
592.386,1.371
592.659,1.362
592.932,1.363
593.205,1.370
593.478,1.375
593.751,1.371
594.024,1.365
594.297,1.358
594.570,1.360
594.843,1.370
595.116,1.385
595.389,1.389
595.662,1.381
595.934,1.376
596.207,1.381
596.480,1.393
596.753,1.404
597.026,1.405
597.299,1.403
597.572,1.399
597.844,1.393
598.117,1.380
598.390,1.368
598.663,1.363
598.936,1.369
599.208,1.375
599.481,1.382
599.754,1.381
600.026,1.367
600.299,1.352
600.572,1.344
600.844,1.345
601.117,1.344
601.390,1.344
601.662,1.344
601.935,1.341
602.207,1.343
602.480,1.348
602.752,1.354
603.025,1.349
603.297,1.346
603.570,1.357
603.842,1.376
604.115,1.387
604.387,1.386
604.660,1.376
604.932,1.374
605.204,1.382
605.477,1.398
605.749,1.411
606.021,1.419
606.294,1.420
606.566,1.412
606.838,1.405
607.110,1.402
607.383,1.406
607.655,1.411
607.927,1.418
608.199,1.426
608.471,1.431
608.743,1.425
609.015,1.416
609.287,1.410
609.559,1.411
609.831,1.415
610.103,1.417
610.375,1.415
610.647,1.405
610.919,1.394
611.191,1.390
611.463,1.393
611.735,1.393
612.007,1.387
612.278,1.384
612.550,1.385
612.822,1.391
613.094,1.395
613.365,1.396
613.637,1.398
613.909,1.399
614.180,1.401
614.452,1.397
614.723,1.388
614.995,1.376
615.266,1.371
615.538,1.380
615.809,1.391
616.081,1.391
616.352,1.379
616.623,1.368
616.895,1.364
617.166,1.359
617.437,1.355
617.709,1.355
617.980,1.365
618.251,1.379
618.522,1.391
618.793,1.405
619.065,1.422
619.336,1.420
619.607,1.406
619.878,1.394
620.149,1.399
620.420,1.402
620.691,1.396
620.962,1.394
621.232,1.397
621.503,1.396
621.774,1.390
622.045,1.385
622.316,1.391
622.586,1.403
622.857,1.415
623.128,1.417
623.398,1.412
623.669,1.401
623.940,1.391
624.210,1.379
624.481,1.378
624.751,1.378
625.021,1.378
625.292,1.371
625.562,1.371
625.833,1.374
626.103,1.374
626.373,1.366
626.643,1.363
626.914,1.364
627.184,1.372
627.454,1.375
627.724,1.377
627.994,1.378
628.264,1.376
628.534,1.364
628.804,1.355
629.074,1.358
629.344,1.370
629.614,1.376
629.884,1.369
630.154,1.355
630.424,1.342
630.693,1.331
630.963,1.320
631.233,1.310
631.502,1.311
631.772,1.326
632.041,1.345
632.311,1.355
632.581,1.358
632.850,1.356
633.119,1.349
633.389,1.339
633.658,1.333
633.928,1.338
634.197,1.347
634.466,1.358
634.735,1.366
635.004,1.365
635.274,1.359
635.543,1.350
635.812,1.348
636.081,1.348
636.350,1.349
636.619,1.348
636.888,1.349
637.157,1.355
637.426,1.366
637.694,1.369
637.963,1.365
638.232,1.356
638.501,1.349
638.769,1.349
639.038,1.355
639.307,1.368
639.575,1.379
639.844,1.376
640.112,1.368
640.381,1.354
640.649,1.352
640.917,1.353
641.186,1.354
641.454,1.357
641.722,1.361
641.991,1.365
642.259,1.358
642.527,1.353
642.795,1.352
643.063,1.348
643.331,1.343
643.599,1.340
643.867,1.347
644.135,1.353
644.403,1.359
644.671,1.363
644.939,1.368
645.206,1.372
645.474,1.374
645.742,1.366
646.009,1.349
646.277,1.336
646.545,1.337
646.812,1.352
647.080,1.370
647.347,1.380
647.615,1.376
647.882,1.359
648.149,1.343
648.417,1.337
648.684,1.343
648.951,1.355
649.219,1.363
649.486,1.363
649.753,1.355
650.020,1.341
650.287,1.335
650.554,1.334
650.821,1.339
651.088,1.342
651.355,1.355
651.622,1.364
651.889,1.370
652.155,1.360
652.422,1.356
652.689,1.360
652.956,1.366
653.222,1.374
653.489,1.388
653.755,1.398
654.022,1.389
654.288,1.368
654.555,1.355
654.821,1.357
655.088,1.363
655.354,1.367
655.620,1.373
655.887,1.378
656.153,1.383
656.419,1.384
656.685,1.381
656.951,1.374
657.217,1.368
657.483,1.363
657.749,1.359
658.015,1.360
658.281,1.361
658.547,1.358
658.813,1.349
659.079,1.340
659.345,1.332
659.610,1.329
659.876,1.328
660.142,1.332
660.407,1.335
660.673,1.339
660.939,1.344
661.204,1.344
661.470,1.341
661.735,1.340
662.000,1.342
662.266,1.342
662.531,1.339
662.796,1.335
663.062,1.332
663.327,1.330
663.592,1.333
663.857,1.339
664.122,1.342
664.388,1.339
664.653,1.341
664.918,1.348
665.183,1.355
665.448,1.361
665.712,1.365
665.977,1.370
666.242,1.368
666.507,1.351
666.772,1.331
667.037,1.321
667.301,1.324
667.566,1.329
667.831,1.334
668.095,1.340
668.360,1.345
668.624,1.341
668.889,1.341
669.153,1.335
669.418,1.333
669.682,1.330
669.946,1.335
670.211,1.345
670.475,1.358
670.739,1.373
671.004,1.389
671.268,1.415
671.532,1.439
671.796,1.428
672.060,1.403
672.324,1.380
672.588,1.385
672.852,1.401
673.116,1.442
673.380,1.479
673.644,1.458
673.908,1.402
674.172,1.351
674.436,1.350
674.700,1.355
674.963,1.364
675.227,1.369
675.491,1.364
675.754,1.356
676.018,1.350
676.282,1.354
676.545,1.355
676.809,1.351
677.072,1.342
677.336,1.338
677.599,1.340
677.863,1.339
678.126,1.341
678.389,1.347
678.653,1.357
678.916,1.357
679.179,1.346
679.442,1.340
679.706,1.344
679.969,1.349
680.232,1.353
680.495,1.364
680.758,1.377
681.021,1.379
681.284,1.364
681.547,1.351
681.810,1.356
682.073,1.374
682.336,1.386
682.599,1.383
682.862,1.374
683.125,1.369
683.388,1.369
683.651,1.367
683.913,1.362
684.176,1.352
684.439,1.338
684.702,1.323
684.964,1.316
685.227,1.322
685.490,1.338
685.752,1.360
686.015,1.368
686.277,1.365
686.540,1.351
686.802,1.344
687.065,1.344
687.327,1.348
687.590,1.350
687.852,1.343
688.115,1.331
688.377,1.324
688.639,1.324
688.902,1.330
689.164,1.339
689.426,1.353
689.689,1.361
689.951,1.360
690.213,1.355
690.475,1.353
690.737,1.351
691.000,1.346
691.262,1.346
691.524,1.351
691.786,1.364
692.048,1.377
692.310,1.375
692.572,1.359
692.834,1.336
693.096,1.329
693.358,1.339
693.620,1.357
693.882,1.370
694.144,1.371
694.406,1.365
694.668,1.359
694.930,1.354
695.192,1.352
695.453,1.353
695.715,1.354
695.977,1.351
696.239,1.341
696.501,1.339
696.762,1.342
697.024,1.346
697.286,1.338
697.548,1.330
697.809,1.328
698.071,1.330
698.333,1.331
698.594,1.333
698.856,1.338
699.118,1.345
699.379,1.350
699.641,1.355
699.902,1.359
700.164,1.358
700.426,1.352
700.687,1.341
700.949,1.337
701.210,1.332
701.472,1.326
701.733,1.319
701.995,1.322
702.256,1.329
702.518,1.331
702.779,1.331
703.041,1.344
703.302,1.361
703.563,1.365
703.825,1.356
704.086,1.346
704.348,1.346
704.609,1.348
704.871,1.357
705.132,1.367
705.393,1.364
705.655,1.356
705.916,1.350
706.177,1.349
706.439,1.349
706.700,1.347
706.961,1.348
707.223,1.346
707.484,1.332
707.745,1.319
708.007,1.304
708.268,1.294
708.529,1.282
708.790,1.265
709.052,1.254
709.313,1.252
709.574,1.260
709.835,1.268
710.097,1.266
710.358,1.255
710.619,1.242
710.881,1.231
711.142,1.224
711.403,1.216
711.664,1.214
711.926,1.213
712.187,1.218
712.448,1.224
712.709,1.234
712.970,1.239
713.232,1.241
713.493,1.244
713.754,1.246
714.015,1.251
714.277,1.254
714.538,1.262
714.799,1.276
715.060,1.286
715.322,1.287
715.583,1.277
715.844,1.267
716.105,1.255
716.367,1.247
716.628,1.247
716.889,1.249
717.150,1.242
717.411,1.229
717.673,1.224
717.934,1.232
718.195,1.242
718.457,1.241
718.718,1.230
718.979,1.224
719.240,1.227
719.502,1.235
719.763,1.243
720.024,1.247
720.286,1.248
720.547,1.239
720.808,1.233
721.069,1.232
721.331,1.243
721.592,1.260
721.853,1.267
722.115,1.265
722.376,1.259
722.638,1.255
722.899,1.251
723.160,1.242
723.422,1.236
723.683,1.233
723.944,1.238
724.206,1.240
724.467,1.239
724.729,1.238
724.990,1.247
725.252,1.255
725.513,1.247
725.775,1.231
726.036,1.221
726.298,1.222
726.559,1.227
726.821,1.228
727.082,1.226
727.344,1.220
727.605,1.218
727.867,1.214
728.128,1.215
728.390,1.215
728.652,1.227
728.913,1.244
729.175,1.255
729.436,1.256
729.698,1.253
729.960,1.250
730.221,1.247
730.483,1.235
730.745,1.233
731.007,1.234
731.268,1.238
731.530,1.238
731.792,1.235
732.054,1.234
732.315,1.235
732.577,1.236
732.839,1.232
733.101,1.227
733.363,1.222
733.625,1.220
733.887,1.219
734.149,1.222
734.411,1.232
734.673,1.241
734.935,1.246
735.197,1.244
735.459,1.246
735.721,1.246
735.983,1.238
736.245,1.222
736.507,1.218
736.769,1.227
737.031,1.241
737.293,1.238
737.555,1.227
737.818,1.218
738.080,1.216
738.342,1.216
738.604,1.215
738.867,1.217
739.129,1.218
739.391,1.215
739.654,1.213
739.916,1.214
740.178,1.220
740.441,1.232
740.703,1.239
740.966,1.239
741.228,1.232
741.491,1.225
741.753,1.222
742.016,1.221
742.278,1.223
742.541,1.229
742.804,1.237
743.066,1.247
743.329,1.249
743.592,1.244
743.854,1.242
744.117,1.243
744.380,1.245
744.643,1.237
744.905,1.229
745.168,1.225
745.431,1.223
745.694,1.221
745.957,1.217
746.220,1.214
746.483,1.210
746.746,1.211
747.009,1.221
747.272,1.238
747.535,1.251
747.798,1.250
748.061,1.237
748.324,1.220
748.588,1.213
748.851,1.211
749.114,1.214
749.377,1.220
749.641,1.224
749.904,1.231
750.167,1.237
750.431,1.245
750.694,1.256
750.958,1.262
751.221,1.257
751.485,1.241
751.748,1.230
752.012,1.234
752.275,1.249
752.539,1.254
752.803,1.249
753.066,1.235
753.330,1.227
753.594,1.225
753.857,1.226
754.121,1.230
754.385,1.237
754.649,1.241
754.913,1.242
755.177,1.245
755.441,1.243
755.705,1.236
755.969,1.227
756.233,1.233
756.497,1.240
756.761,1.240
757.025,1.229
757.289,1.226
757.553,1.227
757.818,1.233
758.082,1.239
758.346,1.245
758.610,1.247
758.875,1.242
759.139,1.236
759.404,1.229
759.668,1.226
759.932,1.232
760.197,1.241
760.462,1.244
760.726,1.241
760.991,1.238
761.255,1.242
761.520,1.244
761.785,1.238
762.049,1.223
762.314,1.214
762.579,1.218
762.844,1.232
763.109,1.241
763.374,1.242
763.639,1.238
763.903,1.234
764.168,1.228
764.433,1.227
764.699,1.234
764.964,1.240
765.229,1.238
765.494,1.227
765.759,1.220
766.024,1.217
766.290,1.225
766.555,1.233
766.820,1.239
767.086,1.241
767.351,1.240
767.616,1.237
767.882,1.232
768.147,1.230
768.413,1.228
768.678,1.228
768.944,1.230
769.209,1.237
769.475,1.250
769.741,1.257
770.006,1.261
770.272,1.260
770.538,1.256
770.804,1.249
771.070,1.246
771.335,1.251
771.601,1.260
771.867,1.264
772.133,1.262
772.399,1.254
772.665,1.240
772.931,1.233
773.197,1.236
773.464,1.251
773.730,1.260
773.996,1.264
774.262,1.266
774.528,1.267
774.795,1.274
775.061,1.280
775.327,1.279
775.594,1.267
775.860,1.247
776.126,1.228
776.393,1.216
776.659,1.211
776.926,1.209
777.193,1.212
777.459,1.215
777.726,1.216
777.992,1.214
778.259,1.211
778.526,1.217
778.793,1.223
779.059,1.232
779.326,1.241
779.593,1.248
779.860,1.256
780.127,1.258
780.394,1.256
780.661,1.251
780.928,1.240
781.195,1.227
781.462,1.216
781.729,1.216
781.996,1.221
782.263,1.228
782.530,1.242
782.797,1.253
783.064,1.251
783.332,1.240
783.599,1.228
783.866,1.227
784.134,1.227
784.401,1.229
784.668,1.228
784.936,1.227
785.203,1.225
785.470,1.220
785.738,1.218
786.005,1.216
786.273,1.214
786.541,1.210
786.808,1.211
787.076,1.214
787.343,1.218
787.611,1.224
787.879,1.233
788.146,1.236
788.414,1.239
788.682,1.234
788.950,1.233
789.217,1.233
789.485,1.247
789.753,1.258
790.021,1.255
790.289,1.237
790.557,1.216
790.825,1.208
791.093,1.216
791.361,1.233
791.629,1.247
791.897,1.252
792.165,1.247
792.433,1.236
792.701,1.218
792.969,1.202
793.237,1.195
793.505,1.202
793.773,1.213
794.042,1.215
794.310,1.211
794.578,1.209
794.846,1.213
795.115,1.218
795.383,1.224
795.651,1.235
795.920,1.242
796.188,1.242
796.456,1.240
796.725,1.239
796.993,1.247
797.261,1.250
797.530,1.246
797.798,1.241
798.067,1.243
798.335,1.252
798.604,1.247
798.872,1.233
799.141,1.221
799.409,1.218
799.678,1.222
799.946,1.228
800.215,1.233
800.483,1.233
800.752,1.231
801.020,1.227
801.289,1.227
801.558,1.229
801.826,1.230
802.095,1.224
802.363,1.220
802.632,1.220
802.901,1.225
803.169,1.228
803.438,1.226
803.707,1.218
803.976,1.209
804.244,1.208
804.513,1.210
804.782,1.208
805.050,1.206
805.319,1.213
805.588,1.226
805.857,1.238
806.125,1.242
806.394,1.237
806.663,1.227
806.931,1.215
807.200,1.212
807.469,1.215
807.738,1.218
808.006,1.219
808.275,1.224
808.544,1.236
808.813,1.247
809.082,1.246
809.350,1.239
809.619,1.230
809.888,1.223
810.157,1.216
810.425,1.209
810.694,1.211
810.963,1.216
811.232,1.215
811.500,1.208
811.769,1.199
812.038,1.200
812.306,1.212
812.575,1.229
812.844,1.239
813.113,1.239
813.381,1.232
813.650,1.233
813.919,1.242
814.187,1.255
814.456,1.259
814.725,1.256
814.993,1.245
815.262,1.240
815.531,1.239
815.799,1.240
816.068,1.232
816.336,1.222
816.605,1.218
816.873,1.222
817.142,1.232
817.411,1.243
817.679,1.253
817.948,1.264
818.216,1.279
818.485,1.308
818.753,1.328
819.021,1.311
819.290,1.270
819.558,1.240
819.827,1.240
820.095,1.249
820.363,1.250
820.632,1.247
820.900,1.241
821.168,1.240
821.437,1.243
821.705,1.245
821.973,1.248
822.241,1.251
822.509,1.255
822.777,1.251
823.046,1.243
823.314,1.242
823.582,1.245
823.850,1.251
824.118,1.256
824.386,1.255
824.654,1.238
824.922,1.218
825.190,1.207
825.457,1.217
825.725,1.229
825.993,1.232
826.261,1.226
826.529,1.221
826.796,1.220
827.064,1.224
827.332,1.228
827.599,1.234
827.867,1.243
828.134,1.244
828.402,1.235
828.669,1.225
828.937,1.221
829.204,1.234
829.471,1.252
829.739,1.265
830.006,1.264
830.273,1.251
830.540,1.234
830.807,1.219
831.075,1.218
831.342,1.227
831.609,1.235
831.876,1.242
832.142,1.249
832.409,1.257
832.676,1.252
832.943,1.237
833.210,1.222
833.476,1.220
833.743,1.227
834.010,1.233
834.276,1.229
834.543,1.221
834.809,1.220
835.076,1.224
835.342,1.228
835.608,1.237
835.874,1.248
836.141,1.249
836.407,1.240
836.673,1.229
836.939,1.228
837.205,1.228
837.471,1.227
837.737,1.229
838.002,1.231
838.268,1.232
838.534,1.235
838.799,1.237
839.065,1.243
839.330,1.242
839.596,1.238
839.861,1.238
840.127,1.243
840.392,1.246
840.657,1.245
840.922,1.248
841.187,1.253
841.452,1.258
841.717,1.264
841.982,1.262
842.247,1.251
842.511,1.240
842.776,1.240
843.041,1.241
843.305,1.232
843.570,1.222
843.834,1.218
844.098,1.217
844.362,1.219
844.627,1.219
844.891,1.222
845.155,1.226
845.419,1.237
845.682,1.248
845.946,1.255
846.210,1.255
846.474,1.248
846.737,1.244
847.001,1.237
847.264,1.228
847.527,1.224
847.790,1.227
848.054,1.229
848.317,1.223
848.580,1.215
848.843,1.215
849.105,1.228
849.368,1.244
849.631,1.253
849.893,1.256
850.156,1.262
850.418,1.263
850.680,1.248
850.943,1.232
851.205,1.231
851.467,1.238
851.729,1.241
851.991,1.241
852.252,1.248
852.514,1.255
852.776,1.258
853.037,1.263
853.298,1.259
853.560,1.249
853.821,1.230
854.082,1.214
854.343,1.214
854.604,1.230
854.865,1.257
855.126,1.275
855.386,1.284
855.647,1.284
855.907,1.273
856.168,1.257
856.428,1.243
856.688,1.237
856.948,1.226
857.208,1.215
857.468,1.214
857.727,1.223
857.987,1.229
858.247,1.234
858.506,1.242
858.765,1.244
859.024,1.235
859.284,1.224
859.543,1.214
859.801,1.211
860.060,1.215
860.319,1.231
860.577,1.246
860.836,1.251
861.094,1.251
861.352,1.248
861.611,1.240
861.869,1.225
862.127,1.220
862.384,1.225
862.642,1.232
862.900,1.241
863.157,1.245
863.414,1.242
863.672,1.231
863.929,1.216
864.186,1.214
864.443,1.221
864.699,1.232
864.956,1.236
865.212,1.227
865.469,1.220
865.725,1.223
865.981,1.235
866.237,1.243
866.493,1.244
866.749,1.234
867.005,1.227
867.260,1.215
867.516,1.209
867.771,1.202
868.026,1.207
868.282,1.224
868.536,1.236
868.791,1.231
869.046,1.220
869.301,1.214
869.555,1.218
869.809,1.229
870.064,1.236
870.318,1.246
870.572,1.251
870.826,1.242
871.079,1.231
871.333,1.223
871.586,1.226
871.840,1.225
872.093,1.224
872.346,1.233
872.599,1.253
872.852,1.270
873.105,1.278
873.357,1.269
873.610,1.256
873.862,1.251
874.114,1.253
874.366,1.255
874.618,1.247
874.870,1.231
875.121,1.216
875.373,1.212
875.624,1.219
875.876,1.224
876.127,1.223
876.378,1.220
876.629,1.219
876.879,1.225
877.130,1.231
877.381,1.228
877.631,1.217
877.881,1.210
878.131,1.220
878.381,1.239
878.631,1.259
878.881,1.266
879.130,1.263
879.380,1.252
879.629,1.241
879.878,1.232
880.127,1.228
880.376,1.231
880.625,1.242
880.873,1.255
881.122,1.265
881.370,1.264
881.618,1.254
881.866,1.241
882.114,1.232
882.362,1.231
882.610,1.235
882.857,1.240
883.105,1.239
883.352,1.229
883.599,1.221
883.846,1.215
884.093,1.215
884.340,1.224
884.586,1.237
884.833,1.244
885.079,1.242
885.325,1.230
885.571,1.224
885.817,1.221
886.063,1.227
886.309,1.234
886.554,1.247
886.800,1.260
887.045,1.269
887.290,1.261
887.535,1.246
887.780,1.241
888.025,1.248
888.270,1.265
888.514,1.276
888.758,1.275
889.003,1.260
889.247,1.237
889.491,1.231
889.735,1.237
889.978,1.249
890.222,1.248
890.465,1.244
890.709,1.237
890.952,1.230
891.195,1.223
891.438,1.220
891.681,1.216
891.923,1.217
892.166,1.223
892.408,1.229
892.651,1.225
892.893,1.217
893.135,1.214
893.377,1.217
893.619,1.224
893.861,1.233
894.102,1.244
894.344,1.259
894.585,1.277
894.826,1.284
895.067,1.272
895.308,1.253
895.549,1.234
895.790,1.222
896.031,1.212
896.271,1.215
896.512,1.230
896.752,1.245
896.992,1.247
897.232,1.238
897.472,1.230
897.712,1.238
897.952,1.256
898.191,1.270
898.431,1.272
898.670,1.271
898.910,1.271
899.149,1.278
899.388,1.281
899.627,1.279
899.866,1.268
900.105,1.254
900.343,1.246
900.582,1.245
900.820,1.250
901.059,1.260
901.297,1.265
901.535,1.255
901.773,1.237
902.011,1.220
902.249,1.207
902.487,1.201
902.725,1.200
902.963,1.211
903.200,1.214
903.438,1.217
903.675,1.221
903.912,1.232
904.150,1.246
904.387,1.248
904.624,1.237
904.861,1.219
905.098,1.211
905.334,1.217
905.571,1.220
905.808,1.220
906.045,1.226
906.281,1.233
906.518,1.240
906.754,1.245
906.990,1.250
907.227,1.250
907.463,1.237
907.699,1.229
907.935,1.233
908.171,1.244
908.407,1.248
908.643,1.245
908.879,1.243
909.115,1.249
909.350,1.254
909.586,1.256
909.822,1.257
910.057,1.266
910.293,1.283
910.528,1.293
910.764,1.290
910.999,1.283
911.235,1.274
911.470,1.273
911.706,1.265
911.941,1.262
912.176,1.253
912.412,1.244
912.647,1.242
912.882,1.244
913.117,1.247
913.352,1.244
913.588,1.237
913.823,1.234
914.058,1.233
914.293,1.234
914.528,1.229
914.763,1.221
914.999,1.214
915.234,1.218
915.469,1.228
915.704,1.232
915.939,1.228
916.174,1.221
916.409,1.221
916.645,1.234
916.880,1.247
917.115,1.255
917.350,1.250
917.586,1.244
917.821,1.243
918.056,1.249
918.292,1.256
918.527,1.254
918.763,1.241
918.998,1.232
919.234,1.242
919.469,1.261
919.705,1.271
919.940,1.267
920.176,1.259
920.412,1.259
920.648,1.257
920.884,1.251
921.120,1.242
921.356,1.237
921.592,1.236
921.828,1.237
922.065,1.240
922.301,1.250
922.537,1.263
922.774,1.268
923.011,1.256
923.247,1.239
923.484,1.234
923.721,1.243
923.958,1.254
924.195,1.256
924.433,1.252
924.670,1.239
924.908,1.226
925.145,1.222
925.383,1.230
925.621,1.240
925.859,1.247
926.097,1.254
926.335,1.258
926.574,1.260
926.813,1.263
927.051,1.264
927.290,1.262
927.529,1.267
927.769,1.280
928.008,1.287
928.248,1.268
928.487,1.245
928.727,1.235
928.967,1.250
929.208,1.262
929.448,1.266
929.689,1.258
929.930,1.244
930.171,1.231
930.413,1.224
930.654,1.225
930.896,1.221
931.138,1.214
931.380,1.207
931.623,1.212
931.865,1.225
932.108,1.240
932.352,1.249
932.595,1.253
932.839,1.253
933.083,1.245
933.327,1.234
933.571,1.226
933.816,1.231
934.061,1.240
934.307,1.241
934.552,1.231
934.798,1.226
935.045,1.228
935.291,1.233
935.538,1.238
935.785,1.243
936.033,1.251
936.281,1.258
936.529,1.260
936.777,1.257
937.026,1.246
937.275,1.234
937.525,1.221
937.775,1.213
938.025,1.209
938.276,1.208
938.527,1.210
938.778,1.210
939.030,1.211
939.282,1.212
939.535,1.219
939.788,1.229
940.041,1.232
940.295,1.229
940.550,1.229
940.804,1.237
941.059,1.245
941.315,1.241
941.571,1.230
941.828,1.222
942.085,1.219
942.342,1.220
942.600,1.219
942.858,1.218
943.117,1.214
943.377,1.209
943.636,1.201
943.897,1.201
944.158,1.207
944.419,1.217
944.681,1.221
944.944,1.227
945.207,1.236
945.470,1.249
945.734,1.258
945.999,1.268
946.264,1.279
946.530,1.284
946.797,1.280
947.064,1.270
947.331,1.260
947.600,1.248
947.869,1.238
948.138,1.231
948.408,1.228
948.679,1.229
948.950,1.232
949.222,1.230
949.495,1.225
949.768,1.227
950.043,1.240
