Wavelength (nm),Intensity Source #45,,C:/Users/Brend/Desktop/MÃ s LED Spectras/Spectrometer Data.sp,,,Source #45,
379.792,2.242,,2018-06-13 14:27:33,,Integration Time,948 ms,
380.000,2.202,,Analyze Light,,Number of Scans to Average,25,
380.209,2.150,,,,Smoothing,1,
380.418,2.191
380.627,2.253
380.837,2.318
381.048,2.333
381.259,2.320
381.471,2.293
381.683,2.289
381.896,2.306
382.110,2.293
382.324,2.307
382.538,2.358
382.753,2.402
382.969,2.340
383.185,2.242
383.402,2.163
383.619,2.185
383.837,2.245
384.055,2.344
384.274,2.423
384.493,2.435
384.712,2.400
384.932,2.368
385.153,2.365
385.374,2.366
385.596,2.361
385.818,2.398
386.040,2.461
386.263,2.514
386.487,2.496
386.710,2.438
386.935,2.347
387.159,2.300
387.385,2.249
387.610,2.218
387.836,2.190
388.063,2.191
388.289,2.213
388.517,2.227
388.744,2.215
388.972,2.243
389.201,2.259
389.430,2.277
389.659,2.260
389.889,2.266
390.119,2.280
390.349,2.288
390.580,2.303
390.811,2.301
391.042,2.292
391.274,2.285
391.507,2.283
391.739,2.251
391.972,2.197
392.205,2.183
392.439,2.217
392.673,2.244
392.907,2.261
393.142,2.282
393.377,2.312
393.612,2.340
393.848,2.333
394.084,2.329
394.320,2.302
394.557,2.315
394.794,2.315
395.031,2.348
395.269,2.374
395.507,2.400
395.745,2.386
395.983,2.359
396.222,2.364
396.461,2.420
396.700,2.505
396.940,2.542
397.180,2.530
397.420,2.455
397.660,2.387
397.901,2.323
398.142,2.313
398.383,2.272
398.625,2.230
398.866,2.230
399.108,2.337
399.351,2.499
399.593,2.524
399.836,2.455
400.079,2.326
400.322,2.250
400.566,2.192
400.809,2.156
401.053,2.164
401.298,2.185
401.542,2.235
401.787,2.284
402.031,2.338
402.277,2.359
402.522,2.354
402.767,2.354
403.013,2.324
403.259,2.306
403.505,2.275
403.752,2.256
403.998,2.244
404.245,2.312
404.492,2.414
404.739,2.474
404.986,2.478
405.234,2.465
405.482,2.459
405.730,2.418
405.978,2.397
406.226,2.345
406.475,2.277
406.723,2.215
406.972,2.224
407.221,2.265
407.470,2.285
407.720,2.283
407.969,2.231
408.219,2.226
408.469,2.254
408.719,2.309
408.969,2.317
409.219,2.320
409.470,2.340
409.720,2.374
409.971,2.397
410.222,2.428
410.473,2.417
410.724,2.376
410.976,2.370
411.227,2.400
411.479,2.418
411.731,2.390
411.983,2.335
412.235,2.302
412.487,2.273
412.740,2.285
412.992,2.308
413.245,2.323
413.497,2.309
413.750,2.283
414.003,2.241
414.257,2.182
414.510,2.153
414.763,2.184
415.017,2.232
415.270,2.256
415.524,2.243
415.778,2.230
416.032,2.231
416.286,2.273
416.540,2.312
416.794,2.348
417.049,2.345
417.303,2.350
417.558,2.375
417.812,2.390
418.067,2.397
418.322,2.377
418.577,2.360
418.832,2.323
419.088,2.267
419.343,2.253
419.598,2.226
419.854,2.247
420.109,2.268
420.365,2.342
420.621,2.386
420.876,2.426
421.132,2.424
421.388,2.391
421.645,2.346
421.901,2.336
422.157,2.347
422.413,2.342
422.670,2.307
422.926,2.268
423.183,2.205
423.439,2.204
423.696,2.252
423.953,2.396
424.210,2.499
424.467,2.503
424.724,2.435
424.981,2.336
425.238,2.308
425.495,2.339
425.753,2.380
426.010,2.394
426.267,2.361
426.525,2.373
426.782,2.394
427.040,2.421
427.298,2.451
427.555,2.479
427.813,2.482
428.071,2.457
428.329,2.441
428.587,2.422
428.845,2.422
429.103,2.409
429.361,2.397
429.619,2.359
429.878,2.335
430.136,2.335
430.394,2.330
430.653,2.383
430.911,2.487
431.170,2.609
431.428,2.632
431.687,2.586
431.946,2.510
432.204,2.468
432.463,2.476
432.722,2.459
432.981,2.433
433.240,2.406
433.499,2.429
433.758,2.494
434.017,2.490
434.276,2.425
434.535,2.300
434.794,2.206
435.053,2.190
435.312,2.211
435.572,2.230
435.831,2.226
436.090,2.259
436.350,2.298
436.609,2.339
436.869,2.322
437.128,2.288
437.388,2.228
437.647,2.211
437.907,2.235
438.166,2.268
438.426,2.244
438.686,2.210
438.946,2.183
439.205,2.206
439.465,2.232
439.725,2.304
439.985,2.356
440.245,2.357
440.505,2.330
440.765,2.313
441.025,2.299
441.285,2.320
441.545,2.356
441.805,2.393
442.065,2.341
442.325,2.246
442.585,2.192
442.846,2.178
443.106,2.232
443.366,2.291
443.626,2.336
443.887,2.342
444.147,2.300
444.407,2.279
444.668,2.250
444.928,2.242
445.189,2.250
445.449,2.275
445.710,2.295
445.970,2.301
446.231,2.299
446.491,2.332
446.752,2.325
447.012,2.331
447.273,2.371
447.534,2.431
447.794,2.404
448.055,2.304
448.316,2.242
448.577,2.258
448.837,2.299
449.098,2.357
449.359,2.402
449.620,2.402
449.881,2.347
450.142,2.276
450.403,2.270
450.664,2.295
450.924,2.314
451.185,2.302
451.446,2.302
451.707,2.317
451.969,2.367
452.230,2.392
452.491,2.440
452.752,2.433
453.013,2.403
453.274,2.376
453.535,2.374
453.796,2.344
454.058,2.275
454.319,2.235
454.580,2.267
454.841,2.339
455.103,2.343
455.364,2.286
455.625,2.230
455.887,2.219
456.148,2.248
456.409,2.300
456.671,2.357
456.932,2.389
457.194,2.371
457.455,2.350
457.716,2.351
457.978,2.392
458.239,2.412
458.501,2.414
458.763,2.359
459.024,2.313
459.286,2.296
459.547,2.319
459.809,2.313
460.071,2.330
460.332,2.377
460.594,2.430
460.856,2.437
461.117,2.376
461.379,2.371
461.641,2.385
461.903,2.411
462.164,2.399
462.426,2.389
462.688,2.391
462.950,2.387
463.212,2.403
463.474,2.380
463.736,2.352
463.998,2.351
464.260,2.424
464.522,2.531
464.784,2.543
465.046,2.452
465.308,2.365
465.570,2.343
465.832,2.391
466.094,2.437
466.356,2.493
466.618,2.542
466.880,2.520
467.142,2.434
467.405,2.365
467.667,2.391
467.929,2.468
468.191,2.551
468.454,2.585
468.716,2.623
468.978,2.627
469.241,2.563
469.503,2.498
469.765,2.448
470.028,2.464
470.290,2.411
470.552,2.332
470.815,2.256
471.077,2.241
471.340,2.276
471.602,2.300
471.865,2.273
472.128,2.194
472.390,2.146
472.653,2.130
472.915,2.144
473.178,2.155
473.441,2.200
473.703,2.264
473.966,2.354
474.229,2.424
474.492,2.454
474.755,2.393
475.017,2.360
475.280,2.342
475.543,2.390
475.806,2.361
476.069,2.306
476.332,2.245
476.595,2.247
476.858,2.260
477.121,2.236
477.384,2.193
477.647,2.191
477.910,2.224
478.173,2.258
478.436,2.243
478.699,2.233
478.962,2.216
479.226,2.257
479.489,2.285
479.752,2.345
480.015,2.401
480.279,2.481
480.542,2.537
480.805,2.532
481.069,2.474
481.332,2.409
481.595,2.378
481.859,2.426
482.122,2.469
482.386,2.466
482.649,2.412
482.913,2.350
483.177,2.291
483.440,2.194
483.704,2.120
483.967,2.137
484.231,2.218
484.495,2.322
484.759,2.384
485.022,2.391
485.286,2.380
485.550,2.360
485.814,2.291
486.078,2.204
486.342,2.153
486.606,2.212
486.869,2.282
487.133,2.332
487.397,2.380
487.662,2.418
487.926,2.418
488.190,2.393
488.454,2.376
488.718,2.383
488.982,2.356
489.246,2.343
489.511,2.324
489.775,2.327
490.039,2.347
490.304,2.347
490.568,2.319
490.832,2.286
491.097,2.313
491.361,2.357
491.626,2.388
491.890,2.384
492.155,2.387
492.419,2.395
492.684,2.380
492.949,2.369
493.213,2.389
493.478,2.462
493.743,2.482
494.008,2.397
494.272,2.294
494.537,2.274
494.802,2.324
495.067,2.404
495.332,2.469
495.597,2.523
495.862,2.521
496.127,2.507
496.392,2.465
496.657,2.401
496.922,2.343
497.187,2.326
497.452,2.357
497.718,2.438
497.983,2.481
498.248,2.479
498.513,2.415
498.779,2.429
499.044,2.494
499.310,2.511
499.575,2.461
499.841,2.418
500.106,2.418
500.372,2.386
500.637,2.381
500.903,2.451
501.168,2.530
501.434,2.523
501.700,2.417
501.966,2.356
502.231,2.320
502.497,2.314
502.763,2.271
503.029,2.228
503.295,2.226
503.561,2.241
503.827,2.298
504.093,2.337
504.359,2.366
504.625,2.372
504.891,2.339
505.157,2.335
505.423,2.279
505.690,2.214
505.956,2.151
506.222,2.173
506.489,2.287
506.755,2.412
507.021,2.497
507.288,2.537
507.554,2.514
507.821,2.492
508.087,2.465
508.354,2.520
508.621,2.555
508.887,2.549
509.154,2.514
509.421,2.493
509.687,2.452
509.954,2.402
510.221,2.359
510.488,2.398
510.755,2.458
511.022,2.534
511.289,2.510
511.556,2.472
511.823,2.435
512.090,2.505
512.357,2.541
512.624,2.561
512.891,2.522
513.159,2.488
513.426,2.461
513.693,2.475
513.960,2.507
514.228,2.499
514.495,2.476
514.763,2.448
515.030,2.440
515.298,2.395
515.565,2.381
515.833,2.381
516.100,2.394
516.368,2.395
516.636,2.385
516.904,2.406
517.171,2.389
517.439,2.392
517.707,2.361
517.975,2.358
518.243,2.372
518.511,2.391
518.779,2.340
519.047,2.327
519.315,2.324
519.583,2.334
519.851,2.265
520.119,2.216
520.387,2.205
520.656,2.230
520.924,2.266
521.192,2.312
521.461,2.350
521.729,2.388
521.997,2.421
522.266,2.434
522.534,2.421
522.803,2.419
523.071,2.399
523.340,2.342
523.609,2.278
523.877,2.243
524.146,2.250
524.415,2.276
524.684,2.315
524.952,2.312
525.221,2.293
525.490,2.315
525.759,2.374
526.028,2.409
526.297,2.351
526.566,2.295
526.835,2.259
527.104,2.276
527.373,2.309
527.642,2.322
527.912,2.292
528.181,2.246
528.450,2.239
528.719,2.283
528.989,2.377
529.258,2.459
529.528,2.482
529.797,2.431
530.067,2.403
530.336,2.377
530.606,2.357
530.875,2.292
531.145,2.262
531.414,2.270
531.684,2.331
531.954,2.362
532.224,2.347
532.493,2.254
532.763,2.195
533.033,2.197
533.303,2.251
533.573,2.306
533.843,2.278
534.113,2.250
534.383,2.194
534.653,2.197
534.923,2.221
535.193,2.263
535.463,2.328
535.733,2.381
536.004,2.425
536.274,2.442
536.544,2.408
536.814,2.347
537.085,2.274
537.355,2.275
537.626,2.350
537.896,2.422
538.166,2.443
538.437,2.412
538.707,2.371
538.978,2.359
539.249,2.398
539.519,2.430
539.790,2.398
540.061,2.357
540.331,2.380
540.602,2.475
540.873,2.539
541.144,2.556
541.414,2.524
541.685,2.502
541.956,2.479
542.227,2.470
542.498,2.435
542.769,2.407
543.040,2.421
543.311,2.496
543.582,2.589
543.853,2.634
544.124,2.657
544.396,2.670
544.667,2.674
544.938,2.657
545.209,2.524
545.480,2.436
545.752,2.377
546.023,2.437
546.294,2.431
546.566,2.391
546.837,2.329
547.109,2.313
547.380,2.312
547.652,2.299
547.923,2.294
548.195,2.339
548.466,2.437
548.738,2.544
549.009,2.562
549.281,2.519
549.553,2.422
549.824,2.312
550.096,2.240
550.368,2.227
550.640,2.262
550.911,2.309
551.183,2.393
551.455,2.525
551.727,2.625
551.999,2.608
552.271,2.506
552.543,2.419
552.815,2.378
553.087,2.419
553.359,2.474
553.631,2.513
553.903,2.505
554.175,2.510
554.447,2.543
554.719,2.562
554.991,2.551
555.263,2.525
555.535,2.492
555.808,2.460
556.080,2.415
556.352,2.390
556.624,2.382
556.897,2.374
557.169,2.375
557.441,2.363
557.714,2.341
557.986,2.333
558.258,2.305
558.531,2.340
558.803,2.375
559.076,2.426
559.348,2.409
559.621,2.372
559.893,2.370
560.166,2.383
560.438,2.387
560.711,2.352
560.983,2.327
561.256,2.323
561.528,2.352
561.801,2.401
562.074,2.470
562.346,2.543
562.619,2.609
562.892,2.605
563.164,2.557
563.437,2.525
563.710,2.518
563.983,2.481
564.255,2.414
564.528,2.418
564.801,2.495
565.074,2.557
565.346,2.526
565.619,2.480
565.892,2.496
566.165,2.506
566.438,2.452
566.711,2.369
566.984,2.345
567.257,2.366
567.529,2.417
567.802,2.499
568.075,2.593
568.348,2.599
568.621,2.576
568.894,2.525
569.167,2.511
569.440,2.476
569.713,2.401
569.986,2.364
570.259,2.336
570.532,2.384
570.805,2.426
571.078,2.449
571.351,2.465
571.625,2.479
571.898,2.460
572.171,2.402
572.444,2.351
572.717,2.384
572.990,2.468
573.263,2.479
573.536,2.426
573.809,2.326
574.083,2.290
574.356,2.314
574.629,2.423
574.902,2.496
575.175,2.520
575.448,2.451
575.721,2.403
575.995,2.381
576.268,2.387
576.541,2.435
576.814,2.494
577.087,2.557
577.361,2.583
577.634,2.580
577.907,2.518
578.180,2.428
578.453,2.376
578.727,2.395
579.000,2.436
579.273,2.481
579.546,2.548
579.820,2.642
580.093,2.675
580.366,2.639
580.639,2.553
580.913,2.521
581.186,2.514
581.459,2.534
581.732,2.492
582.005,2.466
582.279,2.440
582.552,2.462
582.825,2.491
583.098,2.520
583.372,2.557
583.645,2.583
583.918,2.622
584.191,2.634
584.464,2.633
584.738,2.619
585.011,2.617
585.284,2.610
585.557,2.597
585.831,2.610
586.104,2.685
586.377,2.815
586.650,2.905
586.923,2.908
587.196,2.854
587.470,2.765
587.743,2.716
588.016,2.683
588.289,2.711
588.562,2.773
588.835,2.802
589.109,2.772
589.382,2.707
589.655,2.655
589.928,2.637
590.201,2.621
590.474,2.674
590.747,2.749
591.020,2.841
591.293,2.872
591.567,2.880
591.840,2.841
592.113,2.801
592.386,2.734
592.659,2.683
592.932,2.666
593.205,2.710
593.478,2.749
593.751,2.741
594.024,2.716
594.297,2.679
594.570,2.672
594.843,2.714
595.116,2.793
595.389,2.856
595.662,2.851
595.934,2.855
596.207,2.894
596.480,2.963
596.753,3.028
597.026,3.033
597.299,3.026
597.572,3.008
597.844,2.999
598.117,2.941
598.390,2.888
598.663,2.859
598.936,2.890
599.208,2.924
599.481,2.958
599.754,2.988
600.026,2.945
600.299,2.896
600.572,2.857
600.844,2.869
601.117,2.850
601.390,2.837
601.662,2.842
601.935,2.855
602.207,2.866
602.480,2.907
602.752,2.951
603.025,2.951
603.297,2.949
603.570,3.019
603.842,3.170
604.115,3.278
604.387,3.353
604.660,3.346
604.932,3.348
605.204,3.382
605.477,3.468
605.749,3.597
606.021,3.699
606.294,3.785
606.566,3.797
606.838,3.862
607.110,3.979
607.383,4.174
607.655,4.355
607.927,4.543
608.199,4.716
608.471,4.854
608.743,4.902
609.015,4.910
609.287,4.916
609.559,4.950
609.831,5.015
610.103,5.066
610.375,5.074
610.647,5.013
610.919,4.894
611.191,4.776
611.463,4.673
611.735,4.587
612.007,4.472
612.278,4.382
612.550,4.333
612.822,4.352
613.094,4.392
613.365,4.391
613.637,4.429
613.909,4.447
614.180,4.498
614.452,4.477
614.723,4.426
614.995,4.361
615.266,4.340
615.538,4.410
615.809,4.511
616.081,4.558
616.352,4.548
616.623,4.527
616.895,4.538
617.166,4.545
617.437,4.557
617.709,4.612
617.980,4.710
618.251,4.828
618.522,4.932
618.793,5.054
619.065,5.224
619.336,5.295
619.607,5.292
619.878,5.289
620.149,5.399
620.420,5.504
620.691,5.537
620.962,5.566
621.232,5.663
621.503,5.712
621.774,5.742
622.045,5.754
622.316,5.872
622.586,6.031
622.857,6.216
623.128,6.335
623.398,6.408
623.669,6.444
623.940,6.491
624.210,6.521
624.481,6.626
624.751,6.729
625.021,6.833
625.292,6.874
625.562,6.970
625.833,7.080
626.103,7.202
626.373,7.280
626.643,7.407
626.914,7.566
627.184,7.779
627.454,7.964
627.724,8.105
627.994,8.234
628.264,8.370
628.534,8.487
628.804,8.583
629.074,8.718
629.344,8.883
629.614,9.049
629.884,9.158
630.154,9.266
630.424,9.373
630.693,9.479
630.963,9.559
631.233,9.641
631.502,9.804
631.772,10.070
632.041,10.365
632.311,10.607
632.581,10.791
632.850,10.957
633.119,11.048
633.389,11.132
633.658,11.240
633.928,11.480
634.197,11.781
634.466,12.105
634.735,12.405
635.004,12.616
635.274,12.802
635.543,12.982
635.812,13.200
636.081,13.435
636.350,13.679
636.619,13.956
636.888,14.220
637.157,14.471
637.426,14.749
637.694,15.038
637.963,15.311
638.232,15.585
638.501,15.878
638.769,16.235
639.038,16.602
639.307,17.005
639.575,17.409
639.844,17.747
640.112,18.062
640.381,18.368
640.649,18.756
640.917,19.202
641.186,19.644
641.454,20.141
641.722,20.625
641.991,21.169
642.259,21.631
642.527,22.087
642.795,22.559
643.063,23.039
643.331,23.559
643.599,24.098
643.867,24.777
644.135,25.457
644.403,26.181
644.671,26.816
644.939,27.480
645.206,28.120
645.474,28.816
645.742,29.522
646.009,30.216
646.277,30.970
646.545,31.772
646.812,32.705
647.080,33.668
647.347,34.607
647.615,35.471
647.882,36.258
648.149,37.069
648.417,37.901
648.684,38.804
648.951,39.769
649.219,40.752
649.486,41.719
649.753,42.629
650.020,43.513
650.287,44.383
650.554,45.252
650.821,46.125
651.088,46.966
651.355,47.870
651.622,48.730
651.889,49.639
652.155,50.473
652.422,51.356
652.689,52.260
652.956,53.178
653.222,54.096
653.489,55.018
653.755,55.859
654.022,56.578
654.288,57.211
654.555,57.918
654.821,58.770
655.088,59.706
655.354,60.687
655.620,61.698
655.887,62.711
656.153,63.752
656.419,64.791
656.685,65.861
656.951,67.001
657.217,68.234
657.483,69.552
657.749,70.911
658.015,72.318
658.281,73.740
658.547,75.065
658.813,76.281
659.079,77.412
659.345,78.484
659.610,79.472
659.876,80.363
660.142,81.178
660.407,81.892
660.673,82.465
660.939,82.875
661.204,83.046
661.470,83.004
661.735,82.747
662.000,82.323
662.266,81.612
662.531,80.604
662.796,79.296
663.062,77.735
663.327,75.911
663.592,73.895
663.857,71.699
664.122,69.342
664.388,66.807
664.653,64.181
664.918,61.513
665.183,58.811
665.448,56.138
665.712,53.532
665.977,50.993
666.242,48.489
666.507,45.940
666.772,43.518
667.037,41.239
667.301,39.195
667.566,37.277
667.831,35.509
668.095,33.877
668.360,32.399
668.624,30.966
668.889,29.702
669.153,28.494
669.418,27.454
669.682,26.484
669.946,25.626
670.211,24.869
670.475,24.125
670.739,23.415
671.004,22.712
671.268,22.070
671.532,21.494
671.796,20.736
672.060,19.968
672.324,19.170
672.588,18.566
672.852,17.998
673.116,17.550
673.380,17.148
673.644,16.499
673.908,15.721
674.172,14.921
674.436,14.389
674.700,13.897
674.963,13.425
675.227,12.953
675.491,12.440
675.754,11.938
676.018,11.445
676.282,11.035
676.545,10.612
676.809,10.157
677.072,9.697
677.336,9.258
677.599,8.894
677.863,8.536
678.126,8.224
678.389,7.965
678.653,7.718
678.916,7.439
679.179,7.084
679.442,6.767
679.706,6.529
679.969,6.307
680.232,6.101
680.495,5.911
680.758,5.759
681.021,5.559
681.284,5.296
681.547,5.031
681.810,4.862
682.073,4.787
682.336,4.704
682.599,4.559
682.862,4.389
683.125,4.281
683.388,4.220
683.651,4.135
683.913,4.033
684.176,3.862
684.439,3.686
684.702,3.497
684.964,3.384
685.227,3.334
685.490,3.347
685.752,3.404
686.015,3.398
686.277,3.326
686.540,3.205
686.802,3.072
687.065,3.009
687.327,2.981
687.590,2.979
687.852,2.922
688.115,2.815
688.377,2.744
688.639,2.720
688.902,2.721
689.164,2.735
689.426,2.783
689.689,2.839
689.951,2.837
690.213,2.795
690.475,2.760
690.737,2.735
691.000,2.691
691.262,2.646
691.524,2.652
691.786,2.708
692.048,2.768
692.310,2.752
692.572,2.650
692.834,2.531
693.096,2.484
693.358,2.534
693.620,2.619
693.882,2.691
694.144,2.708
694.406,2.666
694.668,2.617
694.930,2.568
695.192,2.540
695.453,2.536
695.715,2.541
695.977,2.528
696.239,2.475
696.501,2.446
696.762,2.465
697.024,2.495
697.286,2.467
697.548,2.428
697.809,2.396
698.071,2.381
698.333,2.372
698.594,2.367
698.856,2.406
699.118,2.440
699.379,2.477
699.641,2.519
699.902,2.573
700.164,2.584
700.426,2.549
700.687,2.475
700.949,2.445
701.210,2.425
701.472,2.405
701.733,2.360
701.995,2.350
702.256,2.359
702.518,2.376
702.779,2.364
703.041,2.417
703.302,2.499
703.563,2.522
703.825,2.472
704.086,2.400
704.348,2.380
704.609,2.408
704.871,2.479
705.132,2.564
705.393,2.550
705.655,2.508
705.916,2.486
706.177,2.510
706.439,2.541
706.700,2.557
706.961,2.564
707.223,2.570
707.484,2.493
707.745,2.430
708.007,2.373
708.268,2.348
708.529,2.323
708.790,2.264
709.052,2.241
709.313,2.272
709.574,2.342
709.835,2.404
710.097,2.405
710.358,2.336
710.619,2.261
710.881,2.189
711.142,2.169
711.403,2.145
711.664,2.158
711.926,2.119
712.187,2.138
712.448,2.167
712.709,2.243
712.970,2.296
713.232,2.333
713.493,2.358
713.754,2.370
714.015,2.384
714.277,2.427
714.538,2.477
714.799,2.556
715.060,2.592
715.322,2.596
715.583,2.533
715.844,2.467
716.105,2.394
716.367,2.342
716.628,2.324
716.889,2.331
717.150,2.318
717.411,2.282
717.673,2.293
717.934,2.342
718.195,2.394
718.457,2.370
718.718,2.291
718.979,2.245
719.240,2.261
719.502,2.328
719.763,2.384
720.024,2.411
720.286,2.426
720.547,2.392
720.808,2.349
721.069,2.317
721.331,2.340
721.592,2.406
721.853,2.445
722.115,2.455
722.376,2.456
722.638,2.436
722.899,2.426
723.160,2.377
723.422,2.344
723.683,2.322
723.944,2.352
724.206,2.374
724.467,2.376
724.729,2.346
724.990,2.366
725.252,2.398
725.513,2.375
725.775,2.290
726.036,2.222
726.298,2.219
726.559,2.278
726.821,2.302
727.082,2.319
727.344,2.294
727.605,2.299
727.867,2.270
728.128,2.288
728.390,2.295
728.652,2.358
728.913,2.436
729.175,2.498
729.436,2.508
729.698,2.507
729.960,2.477
730.221,2.435
730.483,2.335
730.745,2.293
731.007,2.287
731.268,2.298
731.530,2.307
731.792,2.315
732.054,2.353
732.315,2.385
732.577,2.414
732.839,2.382
733.101,2.334
733.363,2.298
733.625,2.289
733.887,2.310
734.149,2.311
734.411,2.347
734.673,2.371
734.935,2.392
735.197,2.366
735.459,2.373
735.721,2.386
735.983,2.386
736.245,2.315
736.507,2.294
736.769,2.325
737.031,2.385
737.293,2.373
737.555,2.315
737.818,2.266
738.080,2.231
738.342,2.237
738.604,2.237
738.867,2.248
739.129,2.235
739.391,2.229
739.654,2.229
739.916,2.249
740.178,2.287
740.441,2.348
740.703,2.379
740.966,2.351
741.228,2.308
741.491,2.268
741.753,2.283
742.016,2.288
742.278,2.301
742.541,2.306
742.804,2.321
743.066,2.365
743.329,2.391
743.592,2.373
743.854,2.356
744.117,2.371
744.380,2.412
744.643,2.404
744.905,2.351
745.168,2.319
745.431,2.296
745.694,2.283
745.957,2.259
746.220,2.245
746.483,2.242
746.746,2.248
747.009,2.300
747.272,2.411
747.535,2.514
747.798,2.540
748.061,2.460
748.324,2.352
748.588,2.285
748.851,2.273
749.114,2.279
749.377,2.314
749.641,2.328
749.904,2.366
750.167,2.414
750.431,2.463
750.694,2.507
750.958,2.521
751.221,2.492
751.485,2.395
751.748,2.319
752.012,2.320
752.275,2.423
752.539,2.475
752.803,2.454
753.066,2.370
753.330,2.298
753.594,2.271
753.857,2.267
754.121,2.312
754.385,2.365
754.649,2.411
754.913,2.423
755.177,2.455
755.441,2.430
755.705,2.382
755.969,2.300
756.233,2.317
756.497,2.358
756.761,2.377
757.025,2.339
757.289,2.310
757.553,2.301
757.818,2.324
758.082,2.357
758.346,2.378
758.610,2.394
758.875,2.396
759.139,2.393
759.404,2.374
759.668,2.347
759.932,2.354
760.197,2.391
760.462,2.412
760.726,2.396
760.991,2.371
761.255,2.368
761.520,2.374
761.785,2.350
762.049,2.288
762.314,2.239
762.579,2.249
762.844,2.317
763.109,2.373
763.374,2.370
763.639,2.343
763.903,2.307
764.168,2.284
764.433,2.269
764.699,2.325
764.964,2.375
765.229,2.380
765.494,2.314
765.759,2.267
766.024,2.257
766.290,2.299
766.555,2.356
766.820,2.397
767.086,2.426
767.351,2.429
767.616,2.416
767.882,2.376
768.147,2.335
768.413,2.307
768.678,2.274
768.944,2.275
769.209,2.306
769.475,2.375
769.741,2.431
770.006,2.479
770.272,2.512
770.538,2.514
770.804,2.488
771.070,2.458
771.335,2.475
771.601,2.528
771.867,2.559
772.133,2.541
772.399,2.497
772.665,2.411
772.931,2.373
773.197,2.398
773.464,2.475
773.730,2.543
773.996,2.544
774.262,2.553
774.528,2.526
774.795,2.531
775.061,2.553
775.327,2.561
775.594,2.511
775.860,2.427
776.126,2.329
776.393,2.261
776.659,2.221
776.926,2.205
777.193,2.215
777.459,2.244
777.726,2.253
777.992,2.263
778.259,2.229
778.526,2.256
778.793,2.277
779.059,2.322
779.326,2.366
779.593,2.403
779.860,2.463
780.127,2.470
780.394,2.463
780.661,2.439
780.928,2.398
781.195,2.356
781.462,2.307
781.729,2.311
781.996,2.325
782.263,2.346
782.530,2.391
782.797,2.431
783.064,2.406
783.332,2.358
783.599,2.292
783.866,2.296
784.134,2.287
784.401,2.295
784.668,2.298
784.936,2.311
785.203,2.303
785.470,2.259
785.738,2.231
786.005,2.230
786.273,2.237
786.541,2.219
786.808,2.229
787.076,2.249
787.343,2.288
787.611,2.323
787.879,2.402
788.146,2.424
788.414,2.455
788.682,2.418
788.950,2.409
789.217,2.396
789.485,2.444
789.753,2.491
790.021,2.459
790.289,2.361
790.557,2.244
790.825,2.192
791.093,2.215
791.361,2.312
791.629,2.404
791.897,2.462
792.165,2.446
792.433,2.410
792.701,2.314
792.969,2.229
793.237,2.164
793.505,2.202
793.773,2.281
794.042,2.317
794.310,2.302
794.578,2.275
794.846,2.267
795.115,2.269
795.383,2.275
795.651,2.329
795.920,2.375
796.188,2.380
796.456,2.392
796.725,2.389
796.993,2.433
797.261,2.448
797.530,2.442
797.798,2.410
798.067,2.417
798.335,2.473
798.604,2.486
798.872,2.411
799.141,2.317
799.409,2.267
799.678,2.276
799.946,2.314
800.215,2.340
800.483,2.331
800.752,2.316
801.020,2.293
801.289,2.289
801.558,2.291
801.826,2.311
802.095,2.296
802.363,2.294
802.632,2.307
802.901,2.358
803.169,2.389
803.438,2.374
803.707,2.319
803.976,2.240
804.244,2.223
804.513,2.241
804.782,2.236
805.050,2.215
805.319,2.231
805.588,2.301
805.857,2.376
806.125,2.395
806.394,2.374
806.663,2.304
806.931,2.237
807.200,2.194
807.469,2.206
807.738,2.214
808.006,2.219
808.275,2.246
808.544,2.325
808.813,2.404
809.082,2.420
809.350,2.368
809.619,2.330
809.888,2.291
810.157,2.273
810.425,2.251
810.694,2.251
810.963,2.284
811.232,2.279
811.500,2.255
811.769,2.195
812.038,2.203
812.306,2.251
812.575,2.337
812.844,2.381
813.113,2.401
813.381,2.356
813.650,2.346
813.919,2.372
814.187,2.439
814.456,2.468
814.725,2.480
814.993,2.443
815.262,2.422
815.531,2.397
815.799,2.396
816.068,2.359
816.336,2.282
816.605,2.246
816.873,2.260
817.142,2.327
817.411,2.393
817.679,2.421
817.948,2.454
818.216,2.512
818.485,2.663
818.753,2.808
819.021,2.745
819.290,2.522
819.558,2.321
819.827,2.311
820.095,2.387
820.363,2.426
820.632,2.424
820.900,2.403
821.168,2.406
821.437,2.444
821.705,2.458
821.973,2.467
822.241,2.450
822.509,2.451
822.777,2.408
823.046,2.375
823.314,2.375
823.582,2.415
823.850,2.447
824.118,2.466
824.386,2.458
824.654,2.370
824.922,2.264
825.190,2.182
825.457,2.225
825.725,2.309
825.993,2.333
826.261,2.309
826.529,2.282
826.796,2.291
827.064,2.283
827.332,2.277
827.599,2.300
827.867,2.383
828.134,2.434
828.402,2.398
828.669,2.322
828.937,2.270
829.204,2.318
829.471,2.434
829.739,2.511
830.006,2.537
830.273,2.469
830.540,2.399
830.807,2.302
831.075,2.274
831.342,2.317
831.609,2.364
831.876,2.398
832.142,2.408
832.409,2.437
832.676,2.421
832.943,2.346
833.210,2.272
833.476,2.235
833.743,2.266
834.010,2.306
834.276,2.290
834.543,2.241
834.809,2.236
835.076,2.270
835.342,2.295
835.608,2.348
835.874,2.411
836.141,2.429
836.407,2.401
836.673,2.340
836.939,2.331
837.205,2.313
837.471,2.313
837.737,2.316
838.002,2.323
838.268,2.317
838.534,2.346
838.799,2.353
839.065,2.403
839.330,2.421
839.596,2.422
839.861,2.415
840.127,2.423
840.392,2.449
840.657,2.460
840.922,2.491
841.187,2.533
841.452,2.532
841.717,2.518
841.982,2.469
842.247,2.405
842.511,2.336
842.776,2.320
843.041,2.353
843.305,2.348
843.570,2.316
843.834,2.295
844.098,2.278
844.362,2.282
844.627,2.253
844.891,2.249
845.155,2.267
845.419,2.319
845.682,2.357
845.946,2.364
846.210,2.376
846.474,2.370
846.737,2.373
847.001,2.351
847.264,2.289
847.527,2.253
847.790,2.241
848.054,2.276
848.317,2.252
848.580,2.221
848.843,2.212
849.105,2.287
849.368,2.393
849.631,2.467
849.893,2.502
850.156,2.535
850.418,2.550
850.680,2.475
850.943,2.385
851.205,2.375
851.467,2.394
851.729,2.376
851.991,2.342
852.252,2.366
852.514,2.431
852.776,2.455
853.037,2.475
853.298,2.454
853.560,2.401
853.821,2.323
854.082,2.231
854.343,2.229
854.604,2.304
854.865,2.455
855.126,2.553
855.386,2.600
855.647,2.589
855.907,2.549
856.168,2.477
856.428,2.399
856.688,2.368
856.948,2.292
857.208,2.215
857.468,2.178
857.727,2.222
857.987,2.277
858.247,2.311
858.506,2.370
858.765,2.416
859.024,2.379
859.284,2.309
859.543,2.242
859.801,2.233
860.060,2.244
860.319,2.317
860.577,2.404
860.836,2.455
861.094,2.468
861.352,2.452
861.611,2.409
861.869,2.335
862.127,2.287
862.384,2.308
862.642,2.331
862.900,2.384
863.157,2.417
863.414,2.408
863.672,2.347
863.929,2.249
864.186,2.217
864.443,2.245
864.699,2.287
864.956,2.315
865.212,2.257
865.469,2.226
865.725,2.246
865.981,2.325
866.237,2.367
866.493,2.380
866.749,2.321
867.005,2.280
867.260,2.222
867.516,2.197
867.771,2.173
868.026,2.177
868.282,2.257
868.536,2.321
868.791,2.339
869.046,2.276
869.301,2.233
869.555,2.231
869.809,2.300
870.064,2.366
870.318,2.418
870.572,2.464
870.826,2.400
871.079,2.327
871.333,2.251
871.586,2.265
871.840,2.278
872.093,2.270
872.346,2.299
872.599,2.384
872.852,2.491
873.105,2.542
873.357,2.510
873.610,2.423
873.862,2.399
874.114,2.415
874.366,2.445
874.618,2.417
874.870,2.317
875.121,2.211
875.373,2.161
875.624,2.197
875.876,2.245
876.127,2.261
876.378,2.262
876.629,2.250
876.879,2.272
877.130,2.296
877.381,2.283
877.631,2.215
877.881,2.154
878.131,2.196
878.381,2.303
878.631,2.440
878.881,2.507
879.130,2.508
879.380,2.452
879.629,2.392
879.878,2.337
880.127,2.307
880.376,2.322
880.625,2.386
880.873,2.464
881.122,2.516
881.370,2.518
881.618,2.457
881.866,2.378
882.114,2.311
882.362,2.286
882.610,2.315
882.857,2.347
883.105,2.367
883.352,2.303
883.599,2.235
883.846,2.179
884.093,2.172
884.340,2.212
884.586,2.293
884.833,2.359
885.079,2.391
885.325,2.356
885.571,2.341
885.817,2.319
886.063,2.348
886.309,2.360
886.554,2.405
886.800,2.438
887.045,2.460
887.290,2.407
887.535,2.316
887.780,2.271
888.025,2.312
888.270,2.416
888.514,2.525
888.758,2.547
889.003,2.514
889.247,2.380
889.491,2.347
889.735,2.364
889.978,2.451
890.222,2.466
890.465,2.432
890.709,2.372
890.952,2.309
891.195,2.257
891.438,2.240
891.681,2.212
891.923,2.214
892.166,2.237
892.408,2.266
892.651,2.248
892.893,2.199
893.135,2.172
893.377,2.184
893.619,2.210
893.861,2.265
894.102,2.321
894.344,2.417
894.585,2.520
894.826,2.595
895.067,2.544
895.308,2.450
895.549,2.332
895.790,2.272
896.031,2.214
896.271,2.235
896.512,2.317
896.752,2.398
896.992,2.407
897.232,2.351
897.472,2.302
897.712,2.338
897.952,2.432
898.191,2.483
898.431,2.467
898.670,2.475
898.910,2.500
899.149,2.559
899.388,2.588
899.627,2.591
899.866,2.544
900.105,2.452
900.343,2.394
900.582,2.383
900.820,2.420
901.059,2.491
901.297,2.538
901.535,2.466
901.773,2.342
902.011,2.245
902.249,2.184
902.487,2.167
902.725,2.172
902.963,2.247
903.200,2.278
903.438,2.268
903.675,2.262
903.912,2.294
904.150,2.370
904.387,2.411
904.624,2.365
904.861,2.288
905.098,2.222
905.334,2.246
905.571,2.242
905.808,2.249
906.045,2.286
906.281,2.347
906.518,2.373
906.754,2.391
906.990,2.403
907.227,2.409
907.463,2.349
907.699,2.300
907.935,2.307
908.171,2.367
908.407,2.375
908.643,2.360
908.879,2.329
909.115,2.364
909.350,2.403
909.586,2.431
909.822,2.432
910.057,2.465
910.293,2.564
910.528,2.655
910.764,2.642
910.999,2.623
911.235,2.558
911.470,2.566
911.706,2.515
911.941,2.502
912.176,2.457
912.412,2.399
912.647,2.372
912.882,2.390
913.117,2.411
913.352,2.399
913.588,2.349
913.823,2.324
914.058,2.313
914.293,2.333
914.528,2.319
914.763,2.288
914.999,2.256
915.234,2.253
915.469,2.282
915.704,2.291
915.939,2.284
916.174,2.265
916.409,2.268
916.645,2.346
916.880,2.419
917.115,2.472
917.350,2.438
917.586,2.401
917.821,2.382
918.056,2.417
918.292,2.467
918.527,2.463
918.763,2.400
918.998,2.333
919.234,2.373
919.469,2.475
919.705,2.528
919.940,2.501
920.176,2.439
920.412,2.449
920.648,2.449
920.884,2.432
921.120,2.381
921.356,2.351
921.592,2.334
921.828,2.320
922.065,2.323
922.301,2.366
922.537,2.448
922.774,2.493
923.011,2.459
923.247,2.356
923.484,2.326
923.721,2.360
923.958,2.433
924.195,2.437
924.433,2.418
924.670,2.339
924.908,2.256
925.145,2.227
925.383,2.286
925.621,2.364
925.859,2.404
926.097,2.425
926.335,2.427
926.574,2.448
926.813,2.462
927.051,2.472
927.290,2.454
927.529,2.499
927.769,2.585
928.008,2.646
928.248,2.541
928.487,2.419
928.727,2.346
928.967,2.422
929.208,2.492
929.448,2.510
929.689,2.461
929.930,2.381
930.171,2.305
930.413,2.265
930.654,2.268
930.896,2.243
931.138,2.207
931.380,2.166
931.623,2.207
931.865,2.279
932.108,2.359
932.352,2.419
932.595,2.441
932.839,2.468
933.083,2.441
933.327,2.403
933.571,2.325
933.816,2.328
934.061,2.359
934.307,2.388
934.552,2.335
934.798,2.307
935.045,2.316
935.291,2.346
935.538,2.347
935.785,2.363
936.033,2.408
936.281,2.461
936.529,2.483
936.777,2.475
937.026,2.419
937.275,2.373
937.525,2.315
937.775,2.273
938.025,2.239
938.276,2.214
938.527,2.216
938.778,2.217
939.030,2.214
939.282,2.214
939.535,2.229
939.788,2.292
940.041,2.301
940.295,2.272
940.550,2.256
940.804,2.308
941.059,2.383
941.315,2.372
941.571,2.296
941.828,2.228
942.085,2.211
942.342,2.245
942.600,2.252
942.858,2.255
943.117,2.224
943.377,2.212
943.636,2.178
943.897,2.168
944.158,2.190
944.419,2.257
944.681,2.301
944.944,2.332
945.207,2.349
945.470,2.383
945.734,2.407
945.999,2.462
946.264,2.536
946.530,2.571
946.797,2.555
947.064,2.504
947.331,2.465
947.600,2.387
947.869,2.316
948.138,2.249
948.408,2.217
948.679,2.213
948.950,2.239
949.222,2.233
949.495,2.213
949.768,2.216
950.043,2.302
