Wavelength (nm),Intensity Source #70,,C:/Users/Brend/Desktop/MÃ s LED Spectras/Spectrometer Data.sp,,,Source #70,
379.792,2.221,,2018-06-13 15:08:58,,Integration Time,962 ms,
380.000,2.178,,Analyze Light,,Number of Scans to Average,25,
380.209,2.125,,,,Smoothing,1,
380.418,2.171
380.627,2.244
380.837,2.315
381.048,2.324
381.259,2.300
381.471,2.266
381.683,2.266
381.896,2.291
382.110,2.292
382.324,2.316
382.538,2.375
382.753,2.425
382.969,2.362
383.185,2.251
383.402,2.164
383.619,2.180
383.837,2.238
384.055,2.334
384.274,2.410
384.493,2.430
384.712,2.401
384.932,2.373
385.153,2.363
385.374,2.359
385.596,2.359
385.818,2.409
386.040,2.477
386.263,2.526
386.487,2.504
386.710,2.445
386.935,2.355
387.159,2.296
387.385,2.242
387.610,2.210
387.836,2.189
388.063,2.193
388.289,2.213
388.517,2.222
388.744,2.206
388.972,2.236
389.201,2.259
389.430,2.281
389.659,2.265
389.889,2.270
390.119,2.284
390.349,2.291
390.580,2.306
390.811,2.301
391.042,2.292
391.274,2.280
391.507,2.280
391.739,2.251
391.972,2.200
392.205,2.191
392.439,2.229
392.673,2.261
392.907,2.273
393.142,2.288
393.377,2.316
393.612,2.341
393.848,2.334
394.084,2.318
394.320,2.287
394.557,2.299
394.794,2.310
395.031,2.350
395.269,2.370
395.507,2.386
395.745,2.366
395.983,2.340
396.222,2.348
396.461,2.404
396.700,2.492
396.940,2.525
397.180,2.509
397.420,2.432
397.660,2.368
397.901,2.306
398.142,2.296
398.383,2.258
398.625,2.220
398.866,2.222
399.108,2.327
399.351,2.490
399.593,2.521
399.836,2.463
400.079,2.347
400.322,2.274
400.566,2.212
400.809,2.168
401.053,2.172
401.298,2.189
401.542,2.235
401.787,2.280
402.031,2.337
402.277,2.363
402.522,2.361
402.767,2.355
403.013,2.318
403.259,2.295
403.505,2.269
403.752,2.257
403.998,2.246
404.245,2.306
404.492,2.407
404.739,2.477
404.986,2.498
405.234,2.494
405.482,2.486
405.730,2.438
405.978,2.408
406.226,2.345
406.475,2.267
406.723,2.198
406.972,2.204
407.221,2.247
407.470,2.271
407.720,2.275
407.969,2.224
408.219,2.224
408.469,2.251
408.719,2.313
408.969,2.318
409.219,2.317
409.470,2.324
409.720,2.349
409.971,2.367
410.222,2.401
410.473,2.402
410.724,2.373
410.976,2.368
411.227,2.393
411.479,2.409
411.731,2.388
411.983,2.341
412.235,2.306
412.487,2.271
412.740,2.272
412.992,2.289
413.245,2.306
413.497,2.298
413.750,2.283
414.003,2.244
414.257,2.185
414.510,2.150
414.763,2.172
415.017,2.219
415.270,2.241
415.524,2.232
415.778,2.220
416.032,2.224
416.286,2.266
416.540,2.310
416.794,2.350
417.049,2.344
417.303,2.342
417.558,2.367
417.812,2.388
418.067,2.398
418.322,2.379
418.577,2.365
418.832,2.331
419.088,2.275
419.343,2.253
419.598,2.222
419.854,2.236
420.109,2.262
420.365,2.341
420.621,2.391
420.876,2.431
421.132,2.429
421.388,2.390
421.645,2.338
421.901,2.316
422.157,2.324
422.413,2.329
422.670,2.309
422.926,2.279
423.183,2.212
423.439,2.206
423.696,2.252
423.953,2.401
424.210,2.510
424.467,2.514
424.724,2.442
424.981,2.333
425.238,2.301
425.495,2.327
425.753,2.372
426.010,2.393
426.267,2.364
426.525,2.374
426.782,2.386
427.040,2.406
427.298,2.432
427.555,2.464
427.813,2.471
428.071,2.458
428.329,2.445
428.587,2.425
428.845,2.421
429.103,2.405
429.361,2.393
429.619,2.350
429.878,2.329
430.136,2.332
430.394,2.330
430.653,2.389
430.911,2.501
431.170,2.630
431.428,2.659
431.687,2.610
431.946,2.533
432.204,2.484
432.463,2.485
432.722,2.458
432.981,2.424
433.240,2.395
433.499,2.423
433.758,2.494
434.017,2.499
434.276,2.443
434.535,2.326
434.794,2.225
435.053,2.190
435.312,2.197
435.572,2.208
435.831,2.207
436.090,2.243
436.350,2.287
436.609,2.330
436.869,2.314
437.128,2.282
437.388,2.219
437.647,2.200
437.907,2.223
438.166,2.252
438.426,2.227
438.686,2.193
438.946,2.168
439.205,2.193
439.465,2.224
439.725,2.300
439.985,2.358
440.245,2.361
440.505,2.337
440.765,2.315
441.025,2.295
441.285,2.309
441.545,2.343
441.805,2.389
442.065,2.343
442.325,2.253
442.585,2.200
442.846,2.190
443.106,2.246
443.366,2.304
443.626,2.344
443.887,2.348
444.147,2.302
444.407,2.284
444.668,2.253
444.928,2.243
445.189,2.240
445.449,2.258
445.710,2.272
445.970,2.278
446.231,2.273
446.491,2.303
446.752,2.290
447.012,2.293
447.273,2.338
447.534,2.402
447.794,2.383
448.055,2.282
448.316,2.219
448.577,2.230
448.837,2.272
449.098,2.330
449.359,2.381
449.620,2.386
449.881,2.341
450.142,2.273
450.403,2.266
450.664,2.289
450.924,2.309
451.185,2.304
451.446,2.313
451.707,2.335
451.969,2.385
452.230,2.402
452.491,2.441
452.752,2.428
453.013,2.398
453.274,2.374
453.535,2.371
453.796,2.343
454.058,2.275
454.319,2.238
454.580,2.271
454.841,2.348
455.103,2.355
455.364,2.299
455.625,2.240
455.887,2.230
456.148,2.258
456.409,2.310
456.671,2.363
456.932,2.392
457.194,2.372
457.455,2.352
457.716,2.347
457.978,2.379
458.239,2.396
458.501,2.404
458.763,2.356
459.024,2.314
459.286,2.293
459.547,2.307
459.809,2.293
460.071,2.308
460.332,2.357
460.594,2.414
460.856,2.424
461.117,2.365
461.379,2.361
461.641,2.376
461.903,2.410
462.164,2.409
462.426,2.403
462.688,2.398
462.950,2.379
463.212,2.385
463.474,2.353
463.736,2.330
463.998,2.340
464.260,2.426
464.522,2.536
464.784,2.552
465.046,2.465
465.308,2.376
465.570,2.346
465.832,2.387
466.094,2.431
466.356,2.485
466.618,2.535
466.880,2.520
467.142,2.433
467.405,2.355
467.667,2.376
467.929,2.455
468.191,2.543
468.454,2.578
468.716,2.623
468.978,2.629
469.241,2.563
469.503,2.492
469.765,2.438
470.028,2.457
470.290,2.411
470.552,2.334
470.815,2.261
471.077,2.247
471.340,2.278
471.602,2.295
471.865,2.260
472.128,2.184
472.390,2.141
472.653,2.133
472.915,2.153
473.178,2.163
473.441,2.203
473.703,2.263
473.966,2.348
474.229,2.419
474.492,2.451
474.755,2.390
475.017,2.352
475.280,2.335
475.543,2.384
475.806,2.353
476.069,2.298
476.332,2.244
476.595,2.257
476.858,2.273
477.121,2.243
477.384,2.188
477.647,2.184
477.910,2.222
478.173,2.253
478.436,2.233
478.699,2.218
478.962,2.205
479.226,2.250
479.489,2.285
479.752,2.347
480.015,2.395
480.279,2.466
480.542,2.520
480.805,2.520
481.069,2.465
481.332,2.407
481.595,2.381
481.859,2.432
482.122,2.475
482.386,2.467
482.649,2.413
482.913,2.352
483.177,2.295
483.440,2.201
483.704,2.129
483.967,2.143
484.231,2.222
484.495,2.323
484.759,2.385
485.022,2.389
485.286,2.379
485.550,2.361
485.814,2.293
486.078,2.204
486.342,2.149
486.606,2.202
486.869,2.265
487.133,2.315
487.397,2.368
487.662,2.409
487.926,2.411
488.190,2.393
488.454,2.386
488.718,2.404
488.982,2.379
489.246,2.368
489.511,2.341
489.775,2.338
490.039,2.351
490.304,2.347
490.568,2.316
490.832,2.279
491.097,2.301
491.361,2.343
491.626,2.375
491.890,2.379
492.155,2.387
492.419,2.403
492.684,2.388
492.949,2.381
493.213,2.401
493.478,2.478
493.743,2.495
494.008,2.407
494.272,2.299
494.537,2.275
494.802,2.326
495.067,2.406
495.332,2.472
495.597,2.521
495.862,2.516
496.127,2.499
496.392,2.456
496.657,2.389
496.922,2.332
497.187,2.322
497.452,2.359
497.718,2.434
497.983,2.473
498.248,2.474
498.513,2.414
498.779,2.431
499.044,2.492
499.310,2.509
499.575,2.455
499.841,2.411
500.106,2.417
500.372,2.387
500.637,2.375
500.903,2.436
501.168,2.513
501.434,2.512
501.700,2.414
501.966,2.358
502.231,2.322
502.497,2.315
502.763,2.270
503.029,2.227
503.295,2.217
503.561,2.222
503.827,2.271
504.093,2.306
504.359,2.335
504.625,2.342
504.891,2.317
505.157,2.317
505.423,2.268
505.690,2.205
505.956,2.146
506.222,2.171
506.489,2.292
506.755,2.428
507.021,2.518
507.288,2.556
507.554,2.527
507.821,2.499
508.087,2.467
508.354,2.521
508.621,2.552
508.887,2.535
509.154,2.487
509.421,2.461
509.687,2.425
509.954,2.381
510.221,2.342
510.488,2.387
510.755,2.449
511.022,2.521
511.289,2.486
511.556,2.440
511.823,2.397
512.090,2.473
512.357,2.508
512.624,2.531
512.891,2.494
513.159,2.470
513.426,2.451
513.693,2.469
513.960,2.509
514.228,2.513
514.495,2.492
514.763,2.462
515.030,2.442
515.298,2.395
515.565,2.381
515.833,2.383
516.100,2.392
516.368,2.389
516.636,2.380
516.904,2.412
517.171,2.403
517.439,2.406
517.707,2.368
517.975,2.367
518.243,2.389
518.511,2.411
518.779,2.350
519.047,2.325
519.315,2.317
519.583,2.330
519.851,2.267
520.119,2.217
520.387,2.202
520.656,2.217
520.924,2.248
521.192,2.294
521.461,2.340
521.729,2.382
521.997,2.412
522.266,2.423
522.534,2.413
522.803,2.416
523.071,2.401
523.340,2.347
523.609,2.276
523.877,2.234
524.146,2.239
524.415,2.267
524.684,2.307
524.952,2.305
525.221,2.289
525.490,2.310
525.759,2.361
526.028,2.390
526.297,2.327
526.566,2.267
526.835,2.230
527.104,2.249
527.373,2.286
527.642,2.306
527.912,2.273
528.181,2.223
528.450,2.213
528.719,2.259
528.989,2.356
529.258,2.442
529.528,2.474
529.797,2.428
530.067,2.399
530.336,2.371
530.606,2.355
530.875,2.296
531.145,2.275
531.414,2.286
531.684,2.343
531.954,2.359
532.224,2.334
532.493,2.234
532.763,2.177
533.033,2.185
533.303,2.244
533.573,2.302
533.843,2.268
534.113,2.238
534.383,2.185
534.653,2.196
534.923,2.227
535.193,2.268
535.463,2.333
535.733,2.382
536.004,2.419
536.274,2.425
536.544,2.387
536.814,2.327
537.085,2.255
537.355,2.258
537.626,2.330
537.896,2.397
538.166,2.413
538.437,2.380
538.707,2.341
538.978,2.327
539.249,2.363
539.519,2.388
539.790,2.350
540.061,2.306
540.331,2.328
540.602,2.421
540.873,2.486
541.144,2.510
541.414,2.488
541.685,2.470
541.956,2.446
542.227,2.433
542.498,2.393
542.769,2.360
543.040,2.373
543.311,2.450
543.582,2.540
543.853,2.582
544.124,2.596
544.396,2.610
544.667,2.613
544.938,2.603
545.209,2.470
545.480,2.383
545.752,2.328
546.023,2.399
546.294,2.406
546.566,2.376
546.837,2.315
547.109,2.295
547.380,2.291
547.652,2.282
547.923,2.276
548.195,2.315
548.466,2.403
548.738,2.509
549.009,2.526
549.281,2.489
549.553,2.394
549.824,2.284
550.096,2.210
550.368,2.198
550.640,2.237
550.911,2.292
551.183,2.384
551.455,2.523
551.727,2.624
551.999,2.608
552.271,2.506
552.543,2.412
552.815,2.362
553.087,2.393
553.359,2.449
553.631,2.489
553.903,2.486
554.175,2.496
554.447,2.535
554.719,2.561
554.991,2.554
555.263,2.533
555.535,2.502
555.808,2.462
556.080,2.410
556.352,2.377
556.624,2.364
556.897,2.352
557.169,2.347
557.441,2.332
557.714,2.303
557.986,2.295
558.258,2.271
558.531,2.321
558.803,2.370
559.076,2.423
559.348,2.400
559.621,2.348
559.893,2.340
560.166,2.355
560.438,2.364
560.711,2.331
560.983,2.306
561.256,2.307
561.528,2.349
561.801,2.405
562.074,2.474
562.346,2.540
562.619,2.600
562.892,2.601
563.164,2.561
563.437,2.531
563.710,2.516
563.983,2.467
564.255,2.392
564.528,2.395
564.801,2.475
565.074,2.542
565.346,2.514
565.619,2.471
565.892,2.488
566.165,2.494
566.438,2.437
566.711,2.354
566.984,2.329
567.257,2.340
567.529,2.381
567.802,2.462
568.075,2.559
568.348,2.576
568.621,2.564
568.894,2.519
569.167,2.501
569.440,2.453
569.713,2.367
569.986,2.332
570.259,2.304
570.532,2.352
570.805,2.392
571.078,2.425
571.351,2.448
571.625,2.461
571.898,2.440
572.171,2.380
572.444,2.329
572.717,2.361
572.990,2.447
573.263,2.458
573.536,2.410
573.809,2.309
574.083,2.271
574.356,2.292
574.629,2.401
574.902,2.476
575.175,2.496
575.448,2.426
575.721,2.383
575.995,2.374
576.268,2.389
576.541,2.437
576.814,2.487
577.087,2.539
577.361,2.552
577.634,2.539
577.907,2.471
578.180,2.388
578.453,2.344
578.727,2.371
579.000,2.414
579.273,2.459
579.546,2.531
579.820,2.624
580.093,2.656
580.366,2.618
580.639,2.528
580.913,2.491
581.186,2.477
581.459,2.494
581.732,2.454
582.005,2.429
582.279,2.397
582.552,2.417
582.825,2.442
583.098,2.478
583.372,2.514
583.645,2.541
583.918,2.578
584.191,2.593
584.464,2.591
584.738,2.574
585.011,2.568
585.284,2.562
585.557,2.553
585.831,2.568
586.104,2.645
586.377,2.771
586.650,2.853
586.923,2.851
587.196,2.797
587.470,2.705
587.743,2.654
588.016,2.619
588.289,2.653
588.562,2.721
588.835,2.749
589.109,2.715
589.382,2.644
589.655,2.587
589.928,2.568
590.201,2.560
590.474,2.629
590.747,2.716
591.020,2.808
591.293,2.839
591.567,2.838
591.840,2.792
592.113,2.748
592.386,2.680
592.659,2.624
592.932,2.597
593.205,2.632
593.478,2.671
593.751,2.665
594.024,2.646
594.297,2.625
594.570,2.633
594.843,2.685
595.116,2.757
595.389,2.812
595.662,2.802
595.934,2.808
596.207,2.848
596.480,2.914
596.753,2.977
597.026,2.991
597.299,2.989
597.572,2.973
597.844,2.953
598.117,2.896
598.390,2.844
598.663,2.819
598.936,2.847
599.208,2.888
599.481,2.929
599.754,2.964
600.026,2.921
600.299,2.874
600.572,2.836
600.844,2.835
601.117,2.805
601.390,2.794
601.662,2.811
601.935,2.833
602.207,2.851
602.480,2.901
602.752,2.962
603.025,2.972
603.297,2.973
603.570,3.034
603.842,3.178
604.115,3.280
604.387,3.347
604.660,3.329
604.932,3.333
605.204,3.377
605.477,3.480
605.749,3.621
606.021,3.735
606.294,3.822
606.566,3.828
606.838,3.882
607.110,3.990
607.383,4.181
607.655,4.360
607.927,4.552
608.199,4.733
608.471,4.881
608.743,4.939
609.015,4.951
609.287,4.955
609.559,4.991
609.831,5.063
610.103,5.118
610.375,5.136
610.647,5.083
610.919,4.979
611.191,4.874
611.463,4.793
611.735,4.713
612.007,4.598
612.278,4.501
612.550,4.459
612.822,4.494
613.094,4.561
613.365,4.583
613.637,4.636
613.909,4.657
614.180,4.706
614.452,4.696
614.723,4.650
614.995,4.599
615.266,4.589
615.538,4.674
615.809,4.786
616.081,4.833
616.352,4.826
616.623,4.809
616.895,4.837
617.166,4.862
617.437,4.894
617.709,4.952
617.980,5.049
618.251,5.172
618.522,5.297
618.793,5.439
619.065,5.621
619.336,5.697
619.607,5.703
619.878,5.716
620.149,5.851
620.420,5.988
620.691,6.053
620.962,6.119
621.232,6.248
621.503,6.339
621.774,6.402
622.045,6.440
622.316,6.574
622.586,6.736
622.857,6.931
623.128,7.051
623.398,7.138
623.669,7.191
623.940,7.258
624.210,7.312
624.481,7.447
624.751,7.584
625.021,7.717
625.292,7.785
625.562,7.915
625.833,8.048
626.103,8.177
626.373,8.261
626.643,8.403
626.914,8.573
627.184,8.784
627.454,8.962
627.724,9.105
627.994,9.242
628.264,9.383
628.534,9.493
628.804,9.576
629.074,9.693
629.344,9.836
629.614,9.974
629.884,10.057
630.154,10.136
630.424,10.205
630.693,10.279
630.963,10.345
631.233,10.429
631.502,10.602
631.772,10.879
632.041,11.183
632.311,11.428
632.581,11.614
632.850,11.791
633.119,11.906
633.389,12.012
633.658,12.156
633.928,12.432
634.197,12.769
634.466,13.120
634.735,13.439
635.004,13.662
635.274,13.853
635.543,14.021
635.812,14.245
636.081,14.503
636.350,14.776
636.619,15.054
636.888,15.313
637.157,15.577
637.426,15.885
637.694,16.221
637.963,16.558
638.232,16.911
638.501,17.283
638.769,17.728
639.038,18.200
639.307,18.708
639.575,19.212
639.844,19.640
640.112,20.053
640.381,20.449
640.649,20.913
640.917,21.444
641.186,21.976
641.454,22.550
641.722,23.097
641.991,23.692
642.259,24.228
642.527,24.773
642.795,25.353
643.063,25.946
643.331,26.588
643.599,27.245
643.867,28.040
644.135,28.845
644.403,29.704
644.671,30.500
644.939,31.331
645.206,32.173
645.474,33.066
645.742,33.968
646.009,34.845
646.277,35.799
646.545,36.790
646.812,37.872
647.080,38.939
647.347,39.994
647.615,40.975
647.882,41.885
648.149,42.759
648.417,43.630
648.684,44.541
648.951,45.483
649.219,46.428
649.486,47.324
649.753,48.197
650.020,49.027
650.287,49.835
650.554,50.605
650.821,51.388
651.088,52.170
651.355,53.039
651.622,53.912
651.889,54.844
652.155,55.747
652.422,56.714
652.689,57.747
652.956,58.823
653.222,59.931
653.489,61.102
653.755,62.245
654.022,63.315
654.288,64.331
654.555,65.438
654.821,66.693
655.088,68.046
655.354,69.426
655.620,70.817
655.887,72.133
656.153,73.370
656.419,74.490
656.685,75.535
656.951,76.530
657.217,77.456
657.483,78.304
657.749,79.039
658.015,79.667
658.281,80.107
658.547,80.274
658.813,80.148
659.079,79.762
659.345,79.162
659.610,78.368
659.876,77.373
660.142,76.200
660.407,74.872
660.673,73.404
660.939,71.792
661.204,69.970
661.470,67.984
661.735,65.873
662.000,63.704
662.266,61.446
662.531,59.081
662.796,56.637
663.062,54.160
663.327,51.689
663.592,49.299
663.857,46.993
664.122,44.791
664.388,42.652
664.653,40.627
664.918,38.747
665.183,36.988
665.448,35.394
665.712,33.919
665.977,32.589
666.242,31.327
666.507,30.042
666.772,28.825
667.037,27.695
667.301,26.746
667.566,25.862
667.831,25.052
668.095,24.279
668.360,23.555
668.624,22.798
668.889,22.140
669.153,21.501
669.418,20.921
669.682,20.328
669.946,19.783
670.211,19.301
670.475,18.786
670.739,18.268
671.004,17.733
671.268,17.264
671.532,16.836
671.796,16.223
672.060,15.568
672.324,14.866
672.588,14.346
672.852,13.866
673.116,13.522
673.380,13.240
673.644,12.702
673.908,12.025
674.172,11.308
674.436,10.877
674.700,10.505
674.963,10.151
675.227,9.780
675.491,9.347
675.754,8.931
676.018,8.529
676.282,8.227
676.545,7.914
676.809,7.575
677.072,7.217
677.336,6.891
677.599,6.646
677.863,6.398
678.126,6.187
678.389,6.023
678.653,5.878
678.916,5.685
679.179,5.403
679.442,5.155
679.706,4.996
679.969,4.863
680.232,4.735
680.495,4.621
680.758,4.539
681.021,4.407
681.284,4.209
681.547,4.012
681.810,3.917
682.073,3.916
682.336,3.903
682.599,3.821
682.862,3.703
683.125,3.629
683.388,3.609
683.651,3.567
683.913,3.499
684.176,3.356
684.439,3.204
684.702,3.036
684.964,2.940
685.227,2.908
685.490,2.949
685.752,3.040
686.015,3.064
686.277,3.020
686.540,2.918
686.802,2.819
687.065,2.784
687.327,2.779
687.590,2.788
687.852,2.738
688.115,2.645
688.377,2.582
688.639,2.562
688.902,2.570
689.164,2.600
689.426,2.668
689.689,2.735
689.951,2.737
690.213,2.697
690.475,2.660
690.737,2.636
691.000,2.596
691.262,2.566
691.524,2.580
691.786,2.640
692.048,2.701
692.310,2.691
692.572,2.589
692.834,2.468
693.096,2.420
693.358,2.479
693.620,2.576
693.882,2.653
694.144,2.665
694.406,2.609
694.668,2.552
694.930,2.500
695.192,2.474
695.453,2.476
695.715,2.484
695.977,2.472
696.239,2.417
696.501,2.390
696.762,2.420
697.024,2.457
697.286,2.428
697.548,2.388
697.809,2.365
698.071,2.363
698.333,2.360
698.594,2.356
698.856,2.392
699.118,2.424
699.379,2.449
699.641,2.483
699.902,2.527
700.164,2.541
700.426,2.510
700.687,2.441
700.949,2.415
701.210,2.402
701.472,2.389
701.733,2.348
701.995,2.344
702.256,2.353
702.518,2.368
702.779,2.349
703.041,2.403
703.302,2.487
703.563,2.511
703.825,2.455
704.086,2.386
704.348,2.373
704.609,2.400
704.871,2.470
705.132,2.551
705.393,2.546
705.655,2.504
705.916,2.478
706.177,2.498
706.439,2.524
706.700,2.532
706.961,2.536
707.223,2.549
707.484,2.488
707.745,2.439
708.007,2.389
708.268,2.366
708.529,2.336
708.790,2.265
709.052,2.228
709.313,2.253
709.574,2.321
709.835,2.385
710.097,2.380
710.358,2.306
710.619,2.235
710.881,2.169
711.142,2.152
711.403,2.119
711.664,2.130
711.926,2.099
712.187,2.122
712.448,2.149
712.709,2.225
712.970,2.288
713.232,2.329
713.493,2.353
713.754,2.362
714.015,2.379
714.277,2.425
714.538,2.478
714.799,2.562
715.060,2.595
715.322,2.599
715.583,2.540
715.844,2.480
716.105,2.407
716.367,2.349
716.628,2.331
716.889,2.338
717.150,2.323
717.411,2.277
717.673,2.275
717.934,2.313
718.195,2.364
718.457,2.350
718.718,2.280
718.979,2.237
719.240,2.250
719.502,2.312
719.763,2.369
720.024,2.399
720.286,2.412
720.547,2.374
720.808,2.327
721.069,2.298
721.331,2.327
721.592,2.401
721.853,2.445
722.115,2.460
722.376,2.461
722.638,2.444
722.899,2.436
723.160,2.388
723.422,2.346
723.683,2.308
723.944,2.334
724.206,2.358
724.467,2.364
724.729,2.339
724.990,2.363
725.252,2.412
725.513,2.399
725.775,2.318
726.036,2.244
726.298,2.228
726.559,2.274
726.821,2.291
727.082,2.311
727.344,2.295
727.605,2.298
727.867,2.266
728.128,2.279
728.390,2.285
728.652,2.340
728.913,2.413
729.175,2.469
729.436,2.477
729.698,2.478
729.960,2.453
730.221,2.424
730.483,2.329
730.745,2.289
731.007,2.278
731.268,2.288
731.530,2.303
731.792,2.317
732.054,2.357
732.315,2.390
732.577,2.423
732.839,2.399
733.101,2.348
733.363,2.297
733.625,2.276
733.887,2.293
734.149,2.304
734.411,2.347
734.673,2.376
734.935,2.400
735.197,2.380
735.459,2.394
735.721,2.409
735.983,2.404
736.245,2.322
736.507,2.292
736.769,2.321
737.031,2.382
737.293,2.369
737.555,2.301
737.818,2.245
738.080,2.202
738.342,2.208
738.604,2.210
738.867,2.234
739.129,2.236
739.391,2.236
739.654,2.237
739.916,2.250
740.178,2.287
740.441,2.352
740.703,2.388
740.966,2.363
741.228,2.314
741.491,2.270
741.753,2.286
742.016,2.296
742.278,2.307
742.541,2.317
742.804,2.333
743.066,2.377
743.329,2.398
743.592,2.378
743.854,2.363
744.117,2.378
744.380,2.414
744.643,2.405
744.905,2.358
745.168,2.333
745.431,2.316
745.694,2.300
745.957,2.272
746.220,2.249
746.483,2.235
746.746,2.233
747.009,2.283
747.272,2.397
747.535,2.496
747.798,2.517
748.061,2.442
748.324,2.337
748.588,2.268
748.851,2.257
749.114,2.268
749.377,2.304
749.641,2.315
749.904,2.345
750.167,2.390
750.431,2.437
750.694,2.486
750.958,2.504
751.221,2.473
751.485,2.371
751.748,2.295
752.012,2.296
752.275,2.402
752.539,2.451
752.803,2.430
753.066,2.345
753.330,2.283
753.594,2.266
753.857,2.266
754.121,2.308
754.385,2.362
754.649,2.409
754.913,2.426
755.177,2.462
755.441,2.440
755.705,2.386
755.969,2.293
756.233,2.297
756.497,2.334
756.761,2.355
757.025,2.319
757.289,2.291
757.553,2.283
757.818,2.308
758.082,2.340
758.346,2.364
758.610,2.381
758.875,2.380
759.139,2.374
759.404,2.348
759.668,2.319
759.932,2.328
760.197,2.369
760.462,2.399
760.726,2.398
760.991,2.380
761.255,2.377
761.520,2.373
761.785,2.345
762.049,2.277
762.314,2.224
762.579,2.237
762.844,2.316
763.109,2.386
763.374,2.395
763.639,2.369
763.903,2.322
764.168,2.286
764.433,2.267
764.699,2.323
764.964,2.371
765.229,2.375
765.494,2.310
765.759,2.267
766.024,2.253
766.290,2.292
766.555,2.345
766.820,2.386
767.086,2.411
767.351,2.411
767.616,2.404
767.882,2.377
768.147,2.350
768.413,2.326
768.678,2.288
768.944,2.278
769.209,2.301
769.475,2.365
769.741,2.426
770.006,2.479
770.272,2.511
770.538,2.510
770.804,2.478
771.070,2.456
771.335,2.478
771.601,2.538
771.867,2.572
772.133,2.552
772.399,2.509
772.665,2.425
772.931,2.390
773.197,2.417
773.464,2.487
773.730,2.551
773.996,2.547
774.262,2.557
774.528,2.526
774.795,2.527
775.061,2.550
775.327,2.568
775.594,2.524
775.860,2.442
776.126,2.337
776.393,2.267
776.659,2.228
776.926,2.212
777.193,2.226
777.459,2.254
777.726,2.260
777.992,2.261
778.259,2.221
778.526,2.239
778.793,2.254
779.059,2.299
779.326,2.357
779.593,2.403
779.860,2.456
780.127,2.458
780.394,2.443
780.661,2.425
780.928,2.388
781.195,2.351
781.462,2.303
781.729,2.307
781.996,2.326
782.263,2.349
782.530,2.396
782.797,2.439
783.064,2.415
783.332,2.360
783.599,2.291
783.866,2.298
784.134,2.295
784.401,2.302
784.668,2.299
784.936,2.308
785.203,2.297
785.470,2.250
785.738,2.221
786.005,2.216
786.273,2.218
786.541,2.193
786.808,2.198
787.076,2.218
787.343,2.264
787.611,2.306
787.879,2.383
788.146,2.397
788.414,2.432
788.682,2.401
788.950,2.402
789.217,2.390
789.485,2.444
789.753,2.497
790.021,2.459
790.289,2.356
790.557,2.239
790.825,2.196
791.093,2.222
791.361,2.314
791.629,2.400
791.897,2.462
792.165,2.452
792.433,2.418
792.701,2.318
792.969,2.232
793.237,2.165
793.505,2.200
793.773,2.276
794.042,2.309
794.310,2.288
794.578,2.259
794.846,2.256
795.115,2.268
795.383,2.277
795.651,2.328
795.920,2.368
796.188,2.374
796.456,2.387
796.725,2.389
796.993,2.439
797.261,2.456
797.530,2.447
797.798,2.407
798.067,2.411
798.335,2.467
798.604,2.479
798.872,2.400
799.141,2.301
799.409,2.253
799.678,2.268
799.946,2.314
800.215,2.344
800.483,2.330
800.752,2.311
801.020,2.292
801.289,2.294
801.558,2.294
801.826,2.309
802.095,2.292
802.363,2.290
802.632,2.302
802.901,2.351
803.169,2.381
803.438,2.364
803.707,2.311
803.976,2.235
804.244,2.218
804.513,2.238
804.782,2.231
805.050,2.208
805.319,2.218
805.588,2.284
805.857,2.361
806.125,2.385
806.394,2.374
806.663,2.313
806.931,2.250
807.200,2.206
807.469,2.217
807.738,2.227
808.006,2.230
808.275,2.258
808.544,2.338
808.813,2.417
809.082,2.427
809.350,2.372
809.619,2.328
809.888,2.288
810.157,2.265
810.425,2.241
810.694,2.240
810.963,2.281
811.232,2.287
811.500,2.260
811.769,2.193
812.038,2.192
812.306,2.239
812.575,2.322
812.844,2.365
813.113,2.387
813.381,2.347
813.650,2.341
813.919,2.367
814.187,2.426
814.456,2.452
814.725,2.461
814.993,2.431
815.262,2.408
815.531,2.381
815.799,2.379
816.068,2.345
816.336,2.276
816.605,2.246
816.873,2.263
817.142,2.325
817.411,2.383
817.679,2.403
817.948,2.442
818.216,2.504
818.485,2.658
818.753,2.797
819.021,2.731
819.290,2.508
819.558,2.307
819.827,2.302
820.095,2.382
820.363,2.424
820.632,2.414
820.900,2.389
821.168,2.389
821.437,2.434
821.705,2.456
821.973,2.471
822.241,2.454
822.509,2.459
822.777,2.417
823.046,2.383
823.314,2.380
823.582,2.413
823.850,2.435
824.118,2.448
824.386,2.445
824.654,2.362
824.922,2.250
825.190,2.162
825.457,2.207
825.725,2.293
825.993,2.316
826.261,2.289
826.529,2.266
826.796,2.284
827.064,2.282
827.332,2.278
827.599,2.299
827.867,2.374
828.134,2.412
828.402,2.369
828.669,2.291
828.937,2.246
829.204,2.305
829.471,2.433
829.739,2.516
830.006,2.536
830.273,2.465
830.540,2.392
830.807,2.297
831.075,2.271
831.342,2.318
831.609,2.369
831.876,2.405
832.142,2.412
832.409,2.435
832.676,2.412
832.943,2.339
833.210,2.268
833.476,2.237
833.743,2.262
834.010,2.299
834.276,2.280
834.543,2.233
834.809,2.228
835.076,2.273
835.342,2.308
835.608,2.367
835.874,2.429
836.141,2.441
836.407,2.408
836.673,2.339
836.939,2.323
837.205,2.298
837.471,2.291
837.737,2.292
838.002,2.303
838.268,2.291
838.534,2.309
838.799,2.301
839.065,2.343
839.330,2.362
839.596,2.382
839.861,2.397
840.127,2.428
840.392,2.456
840.657,2.467
840.922,2.489
841.187,2.529
841.452,2.530
841.717,2.520
841.982,2.468
842.247,2.401
842.511,2.328
842.776,2.316
843.041,2.348
843.305,2.340
843.570,2.308
843.834,2.292
844.098,2.277
844.362,2.283
844.627,2.257
844.891,2.261
845.155,2.280
845.419,2.330
845.682,2.370
845.946,2.377
846.210,2.389
846.474,2.377
846.737,2.385
847.001,2.367
847.264,2.303
847.527,2.257
847.790,2.238
848.054,2.271
848.317,2.247
848.580,2.217
848.843,2.214
849.105,2.298
849.368,2.405
849.631,2.468
849.893,2.487
850.156,2.514
850.418,2.535
850.680,2.463
850.943,2.370
851.205,2.350
851.467,2.363
851.729,2.340
851.991,2.306
852.252,2.329
852.514,2.398
852.776,2.432
853.037,2.465
853.298,2.453
853.560,2.403
853.821,2.322
854.082,2.227
854.343,2.232
854.604,2.311
854.865,2.476
855.126,2.573
855.386,2.622
855.647,2.603
855.907,2.561
856.168,2.483
856.428,2.397
856.688,2.356
856.948,2.283
857.208,2.215
857.468,2.189
857.727,2.237
857.987,2.293
858.247,2.331
858.506,2.390
858.765,2.425
859.024,2.381
859.284,2.302
859.543,2.237
859.801,2.218
860.060,2.224
860.319,2.295
860.577,2.382
860.836,2.438
861.094,2.457
861.352,2.451
861.611,2.401
861.869,2.312
862.127,2.264
862.384,2.299
862.642,2.340
862.900,2.397
863.157,2.424
863.414,2.406
863.672,2.329
863.929,2.226
864.186,2.198
864.443,2.231
864.699,2.276
864.956,2.306
865.212,2.252
865.469,2.221
865.725,2.236
865.981,2.316
866.237,2.360
866.493,2.380
866.749,2.330
867.005,2.301
867.260,2.244
867.516,2.208
867.771,2.171
868.026,2.174
868.282,2.259
868.536,2.333
868.791,2.350
869.046,2.283
869.301,2.226
869.555,2.219
869.809,2.288
870.064,2.358
870.318,2.410
870.572,2.454
870.826,2.392
871.079,2.322
871.333,2.258
871.586,2.281
871.840,2.296
872.093,2.281
872.346,2.304
872.599,2.386
872.852,2.488
873.105,2.536
873.357,2.507
873.610,2.420
873.862,2.396
874.114,2.409
874.366,2.444
874.618,2.417
874.870,2.320
875.121,2.221
875.373,2.179
875.624,2.212
875.876,2.249
876.127,2.258
876.378,2.260
876.629,2.252
876.879,2.274
877.130,2.295
877.381,2.278
877.631,2.209
877.881,2.151
878.131,2.193
878.381,2.296
878.631,2.424
878.881,2.483
879.130,2.487
879.380,2.442
879.629,2.393
879.878,2.337
880.127,2.295
880.376,2.295
880.625,2.355
880.873,2.430
881.122,2.480
881.370,2.482
881.618,2.428
881.866,2.356
882.114,2.291
882.362,2.267
882.610,2.294
882.857,2.330
883.105,2.355
883.352,2.295
883.599,2.229
883.846,2.177
884.093,2.175
884.340,2.216
884.586,2.294
884.833,2.354
885.079,2.382
885.325,2.348
885.571,2.333
885.817,2.314
886.063,2.349
886.309,2.367
886.554,2.418
886.800,2.447
887.045,2.468
887.290,2.413
887.535,2.318
887.780,2.272
888.025,2.311
888.270,2.411
888.514,2.518
888.758,2.541
889.003,2.513
889.247,2.379
889.491,2.347
889.735,2.369
889.978,2.459
890.222,2.468
890.465,2.430
890.709,2.374
890.952,2.311
891.195,2.253
891.438,2.228
891.681,2.205
891.923,2.210
892.166,2.237
892.408,2.268
892.651,2.250
892.893,2.202
893.135,2.174
893.377,2.184
893.619,2.209
893.861,2.260
894.102,2.316
894.344,2.415
894.585,2.516
894.826,2.591
895.067,2.541
895.308,2.463
895.549,2.362
895.790,2.309
896.031,2.244
896.271,2.253
896.512,2.329
896.752,2.414
896.992,2.419
897.232,2.353
897.472,2.292
897.712,2.329
897.952,2.428
898.191,2.486
898.431,2.464
898.670,2.463
898.910,2.485
899.149,2.554
899.388,2.588
899.627,2.589
899.866,2.535
900.105,2.436
900.343,2.376
900.582,2.364
900.820,2.398
901.059,2.469
901.297,2.522
901.535,2.467
901.773,2.347
902.011,2.244
902.249,2.177
902.487,2.158
902.725,2.162
902.963,2.232
903.200,2.261
903.438,2.251
903.675,2.249
903.912,2.280
904.150,2.355
904.387,2.390
904.624,2.350
904.861,2.277
905.098,2.218
905.334,2.240
905.571,2.232
905.808,2.233
906.045,2.267
906.281,2.329
906.518,2.359
906.754,2.385
906.990,2.396
907.227,2.400
907.463,2.335
907.699,2.285
907.935,2.292
908.171,2.355
908.407,2.368
908.643,2.355
908.879,2.329
909.115,2.365
909.350,2.404
909.586,2.428
909.822,2.432
910.057,2.473
910.293,2.576
910.528,2.659
910.764,2.636
910.999,2.608
911.235,2.538
911.470,2.548
911.706,2.501
911.941,2.491
912.176,2.447
912.412,2.388
912.647,2.363
912.882,2.381
913.117,2.401
913.352,2.387
913.588,2.336
913.823,2.311
914.058,2.298
914.293,2.320
914.528,2.305
914.763,2.275
914.999,2.245
915.234,2.242
915.469,2.274
915.704,2.287
915.939,2.275
916.174,2.244
916.409,2.235
916.645,2.310
916.880,2.387
917.115,2.444
917.350,2.419
917.586,2.385
917.821,2.370
918.056,2.407
918.292,2.465
918.527,2.465
918.763,2.409
918.998,2.338
919.234,2.370
919.469,2.463
919.705,2.519
919.940,2.491
920.176,2.428
920.412,2.440
920.648,2.445
920.884,2.429
921.120,2.371
921.356,2.335
921.592,2.320
921.828,2.310
922.065,2.319
922.301,2.366
922.537,2.446
922.774,2.486
923.011,2.442
923.247,2.334
923.484,2.306
923.721,2.349
923.958,2.427
924.195,2.434
924.433,2.414
924.670,2.340
924.908,2.257
925.145,2.228
925.383,2.291
925.621,2.367
925.859,2.405
926.097,2.421
926.335,2.425
926.574,2.442
926.813,2.446
927.051,2.440
927.290,2.415
927.529,2.459
927.769,2.557
928.008,2.635
928.248,2.544
928.487,2.431
928.727,2.365
928.967,2.443
929.208,2.512
929.448,2.521
929.689,2.463
929.930,2.374
930.171,2.298
930.413,2.261
930.654,2.265
930.896,2.238
931.138,2.204
931.380,2.159
931.623,2.201
931.865,2.274
932.108,2.358
932.352,2.414
932.595,2.429
932.839,2.453
933.083,2.428
933.327,2.392
933.571,2.313
933.816,2.317
934.061,2.347
934.307,2.374
934.552,2.316
934.798,2.279
935.045,2.281
935.291,2.319
935.538,2.345
935.785,2.384
936.033,2.436
936.281,2.480
936.529,2.493
936.777,2.477
937.026,2.415
937.275,2.366
937.525,2.306
937.775,2.267
938.025,2.235
938.276,2.220
938.527,2.223
938.778,2.220
939.030,2.206
939.282,2.200
939.535,2.213
939.788,2.271
940.041,2.272
940.295,2.237
940.550,2.226
940.804,2.287
941.059,2.369
941.315,2.357
941.571,2.282
941.828,2.220
942.085,2.209
942.342,2.246
942.600,2.253
942.858,2.254
943.117,2.222
943.377,2.202
943.636,2.163
943.897,2.151
944.158,2.170
944.419,2.232
944.681,2.271
944.944,2.303
945.207,2.329
945.470,2.375
945.734,2.409
945.999,2.466
946.264,2.537
946.530,2.573
946.797,2.555
947.064,2.498
947.331,2.453
947.600,2.375
947.869,2.303
948.138,2.238
948.408,2.208
948.679,2.211
948.950,2.247
949.222,2.247
949.495,2.232
949.768,2.233
950.043,2.312
