Wavelength (nm),Intensity Source #71,,C:/Users/Brend/Desktop/MÃ s LED Spectras/Spectrometer Data.sp,,,Source #71,
379.792,2.237,,2018-06-13 15:09:44,,Integration Time,948 ms,
380.000,2.195,,Analyze Light,,Number of Scans to Average,25,
380.209,2.142,,,,Smoothing,1,
380.418,2.182
380.627,2.250
380.837,2.320
381.048,2.339
381.259,2.323
381.471,2.292
381.683,2.281
381.896,2.294
382.110,2.287
382.324,2.315
382.538,2.377
382.753,2.424
382.969,2.356
383.185,2.243
383.402,2.157
383.619,2.165
383.837,2.214
384.055,2.307
384.274,2.392
384.493,2.419
384.712,2.396
384.932,2.372
385.153,2.372
385.374,2.372
385.596,2.367
385.818,2.408
386.040,2.468
386.263,2.523
386.487,2.504
386.710,2.452
386.935,2.359
387.159,2.302
387.385,2.245
387.610,2.216
387.836,2.199
388.063,2.206
388.289,2.225
388.517,2.229
388.744,2.211
388.972,2.235
389.201,2.253
389.430,2.273
389.659,2.255
389.889,2.266
390.119,2.287
390.349,2.302
390.580,2.315
390.811,2.309
391.042,2.297
391.274,2.282
391.507,2.269
391.739,2.234
391.972,2.186
392.205,2.188
392.439,2.234
392.673,2.269
392.907,2.287
393.142,2.307
393.377,2.338
393.612,2.359
393.848,2.344
394.084,2.322
394.320,2.292
394.557,2.309
394.794,2.326
395.031,2.374
395.269,2.395
395.507,2.406
395.745,2.374
395.983,2.339
396.222,2.341
396.461,2.398
396.700,2.491
396.940,2.535
397.180,2.525
397.420,2.452
397.660,2.383
397.901,2.320
398.142,2.309
398.383,2.274
398.625,2.232
398.866,2.229
399.108,2.331
399.351,2.499
399.593,2.538
399.836,2.476
400.079,2.356
400.322,2.282
400.566,2.224
400.809,2.186
401.053,2.185
401.298,2.203
401.542,2.248
401.787,2.299
402.031,2.344
402.277,2.359
402.522,2.351
402.767,2.351
403.013,2.320
403.259,2.299
403.505,2.269
403.752,2.252
403.998,2.243
404.245,2.310
404.492,2.418
404.739,2.491
404.986,2.519
405.234,2.512
405.482,2.492
405.730,2.432
405.978,2.401
406.226,2.346
406.475,2.271
406.723,2.208
406.972,2.219
407.221,2.269
407.470,2.292
407.720,2.284
407.969,2.229
408.219,2.225
408.469,2.256
408.719,2.313
408.969,2.320
409.219,2.326
409.470,2.341
409.720,2.359
409.971,2.364
410.222,2.387
410.473,2.383
410.724,2.365
410.976,2.370
411.227,2.408
411.479,2.419
411.731,2.388
411.983,2.331
412.235,2.299
412.487,2.271
412.740,2.282
412.992,2.300
413.245,2.317
413.497,2.297
413.750,2.274
414.003,2.229
414.257,2.164
414.510,2.121
414.763,2.139
415.017,2.195
415.270,2.225
415.524,2.224
415.778,2.224
416.032,2.239
416.286,2.284
416.540,2.318
416.794,2.348
417.049,2.344
417.303,2.346
417.558,2.374
417.812,2.392
418.067,2.400
418.322,2.379
418.577,2.364
418.832,2.330
419.088,2.276
419.343,2.258
419.598,2.234
419.854,2.252
420.109,2.278
420.365,2.352
420.621,2.400
420.876,2.435
421.132,2.434
421.388,2.396
421.645,2.339
421.901,2.312
422.157,2.315
422.413,2.323
422.670,2.304
422.926,2.279
423.183,2.222
423.439,2.225
423.696,2.271
423.953,2.411
424.210,2.515
424.467,2.519
424.724,2.444
424.981,2.335
425.238,2.307
425.495,2.339
425.753,2.375
426.010,2.387
426.267,2.352
426.525,2.369
426.782,2.382
427.040,2.401
427.298,2.429
427.555,2.475
427.813,2.496
428.071,2.484
428.329,2.466
428.587,2.450
428.845,2.453
429.103,2.432
429.361,2.403
429.619,2.348
429.878,2.322
430.136,2.331
430.394,2.339
430.653,2.403
430.911,2.510
431.170,2.634
431.428,2.654
431.687,2.598
431.946,2.512
432.204,2.458
432.463,2.455
432.722,2.434
432.981,2.409
433.240,2.390
433.499,2.421
433.758,2.499
434.017,2.504
434.276,2.449
434.535,2.326
434.794,2.225
435.053,2.195
435.312,2.208
435.572,2.232
435.831,2.243
436.090,2.289
436.350,2.341
436.609,2.380
436.869,2.354
437.128,2.309
437.388,2.239
437.647,2.219
437.907,2.240
438.166,2.276
438.426,2.252
438.686,2.219
438.946,2.191
439.205,2.217
439.465,2.248
439.725,2.315
439.985,2.362
440.245,2.357
440.505,2.338
440.765,2.313
441.025,2.289
441.285,2.299
441.545,2.335
441.805,2.374
442.065,2.315
442.325,2.216
442.585,2.164
442.846,2.164
443.106,2.224
443.366,2.286
443.626,2.331
443.887,2.346
444.147,2.305
444.407,2.287
444.668,2.253
444.928,2.243
445.189,2.247
445.449,2.279
445.710,2.304
445.970,2.310
446.231,2.292
446.491,2.317
446.752,2.302
447.012,2.309
447.273,2.351
447.534,2.414
447.794,2.388
448.055,2.282
448.316,2.214
448.577,2.225
448.837,2.265
449.098,2.323
449.359,2.380
449.620,2.400
449.881,2.352
450.142,2.279
450.403,2.268
450.664,2.299
450.924,2.325
451.185,2.313
451.446,2.310
451.707,2.325
451.969,2.379
452.230,2.405
452.491,2.450
452.752,2.440
453.013,2.414
453.274,2.382
453.535,2.374
453.796,2.336
454.058,2.268
454.319,2.230
454.580,2.265
454.841,2.338
455.103,2.333
455.364,2.273
455.625,2.224
455.887,2.227
456.148,2.265
456.409,2.317
456.671,2.375
456.932,2.403
457.194,2.377
457.455,2.343
457.716,2.331
457.978,2.361
458.239,2.380
458.501,2.392
458.763,2.351
459.024,2.312
459.286,2.297
459.547,2.317
459.809,2.309
460.071,2.326
460.332,2.379
460.594,2.437
460.856,2.439
461.117,2.369
461.379,2.362
461.641,2.385
461.903,2.424
462.164,2.426
462.426,2.414
462.688,2.401
462.950,2.370
463.212,2.377
463.474,2.352
463.736,2.335
463.998,2.336
464.260,2.416
464.522,2.523
464.784,2.551
465.046,2.476
465.308,2.392
465.570,2.351
465.832,2.382
466.094,2.426
466.356,2.484
466.618,2.532
466.880,2.514
467.142,2.427
467.405,2.348
467.667,2.362
467.929,2.435
468.191,2.527
468.454,2.564
468.716,2.602
468.978,2.608
469.241,2.553
469.503,2.497
469.765,2.445
470.028,2.453
470.290,2.400
470.552,2.317
470.815,2.242
471.077,2.225
471.340,2.258
471.602,2.281
471.865,2.256
472.128,2.195
472.390,2.151
472.653,2.131
472.915,2.141
473.178,2.157
473.441,2.211
473.703,2.279
473.966,2.370
474.229,2.442
474.492,2.468
474.755,2.393
475.017,2.344
475.280,2.331
475.543,2.392
475.806,2.364
476.069,2.302
476.332,2.235
476.595,2.240
476.858,2.250
477.121,2.225
477.384,2.180
477.647,2.186
477.910,2.225
478.173,2.265
478.436,2.243
478.699,2.227
478.962,2.211
479.226,2.260
479.489,2.294
479.752,2.346
480.015,2.393
480.279,2.470
480.542,2.528
480.805,2.527
481.069,2.468
481.332,2.406
481.595,2.377
481.859,2.421
482.122,2.455
482.386,2.447
482.649,2.405
482.913,2.352
483.177,2.297
483.440,2.195
483.704,2.115
483.967,2.116
484.231,2.188
484.495,2.289
484.759,2.364
485.022,2.385
485.286,2.383
485.550,2.361
485.814,2.289
486.078,2.203
486.342,2.147
486.606,2.195
486.869,2.248
487.133,2.295
487.397,2.351
487.662,2.398
487.926,2.408
488.190,2.390
488.454,2.383
488.718,2.401
488.982,2.382
489.246,2.377
489.511,2.352
489.775,2.344
490.039,2.348
490.304,2.339
490.568,2.310
490.832,2.278
491.097,2.307
491.361,2.349
491.626,2.379
491.890,2.370
492.155,2.375
492.419,2.393
492.684,2.385
492.949,2.385
493.213,2.411
493.478,2.491
493.743,2.509
494.008,2.419
494.272,2.315
494.537,2.291
494.802,2.336
495.067,2.406
495.332,2.463
495.597,2.514
495.862,2.510
496.127,2.499
496.392,2.462
496.657,2.400
496.922,2.343
497.187,2.325
497.452,2.354
497.718,2.431
497.983,2.478
498.248,2.491
498.513,2.432
498.779,2.439
499.044,2.497
499.310,2.517
499.575,2.470
499.841,2.416
500.106,2.409
500.372,2.372
500.637,2.364
500.903,2.427
501.168,2.507
501.434,2.505
501.700,2.406
501.966,2.351
502.231,2.322
502.497,2.317
502.763,2.274
503.029,2.225
503.295,2.214
503.561,2.221
503.827,2.281
504.093,2.326
504.359,2.357
504.625,2.361
504.891,2.328
505.157,2.318
505.423,2.263
505.690,2.198
505.956,2.139
506.222,2.159
506.489,2.279
506.755,2.414
507.021,2.502
507.288,2.541
507.554,2.520
507.821,2.499
508.087,2.476
508.354,2.533
508.621,2.571
508.887,2.556
509.154,2.509
509.421,2.486
509.687,2.452
509.954,2.406
510.221,2.359
510.488,2.393
510.755,2.450
511.022,2.520
511.289,2.491
511.556,2.449
511.823,2.413
512.090,2.489
512.357,2.525
512.624,2.549
512.891,2.510
513.159,2.479
513.426,2.450
513.693,2.457
513.960,2.491
514.228,2.492
514.495,2.481
514.763,2.458
515.030,2.445
515.298,2.401
515.565,2.390
515.833,2.398
516.100,2.406
516.368,2.398
516.636,2.380
516.904,2.409
517.171,2.403
517.439,2.408
517.707,2.367
517.975,2.356
518.243,2.369
518.511,2.392
518.779,2.351
519.047,2.343
519.315,2.346
519.583,2.352
519.851,2.287
520.119,2.235
520.387,2.217
520.656,2.227
520.924,2.252
521.192,2.297
521.461,2.346
521.729,2.393
521.997,2.427
522.266,2.435
522.534,2.419
522.803,2.418
523.071,2.396
523.340,2.339
523.609,2.271
523.877,2.237
524.146,2.245
524.415,2.271
524.684,2.310
524.952,2.307
525.221,2.291
525.490,2.312
525.759,2.365
526.028,2.400
526.297,2.341
526.566,2.284
526.835,2.248
527.104,2.265
527.373,2.294
527.642,2.305
527.912,2.271
528.181,2.225
528.450,2.219
528.719,2.263
528.989,2.357
529.258,2.435
529.528,2.465
529.797,2.421
530.067,2.400
530.336,2.364
530.606,2.339
530.875,2.278
531.145,2.263
531.414,2.282
531.684,2.343
531.954,2.357
532.224,2.325
532.493,2.219
532.763,2.157
533.033,2.159
533.303,2.217
533.573,2.276
533.843,2.248
534.113,2.214
534.383,2.155
534.653,2.160
534.923,2.188
535.193,2.239
535.463,2.309
535.733,2.367
536.004,2.409
536.274,2.426
536.544,2.383
536.814,2.317
537.085,2.239
537.355,2.248
537.626,2.330
537.896,2.406
538.166,2.431
538.437,2.400
538.707,2.359
538.978,2.344
539.249,2.383
539.519,2.408
539.790,2.367
540.061,2.323
540.331,2.354
540.602,2.457
540.873,2.517
541.144,2.538
541.414,2.507
541.685,2.486
541.956,2.452
542.227,2.427
542.498,2.380
542.769,2.351
543.040,2.374
543.311,2.460
543.582,2.554
543.853,2.602
544.124,2.619
544.396,2.634
544.667,2.639
544.938,2.631
545.209,2.504
545.480,2.424
545.752,2.369
546.023,2.431
546.294,2.426
546.566,2.393
546.837,2.330
547.109,2.300
547.380,2.286
547.652,2.268
547.923,2.261
548.195,2.300
548.466,2.393
548.738,2.502
549.009,2.520
549.281,2.488
549.553,2.406
549.824,2.315
550.096,2.252
550.368,2.237
550.640,2.268
550.911,2.309
551.183,2.383
551.455,2.507
551.727,2.597
551.999,2.580
552.271,2.481
552.543,2.395
552.815,2.349
553.087,2.387
553.359,2.449
553.631,2.494
553.903,2.492
554.175,2.499
554.447,2.540
554.719,2.558
554.991,2.546
555.263,2.514
555.535,2.486
555.808,2.455
556.080,2.418
556.352,2.390
556.624,2.380
556.897,2.364
557.169,2.352
557.441,2.330
557.714,2.297
557.986,2.287
558.258,2.265
558.531,2.307
558.803,2.351
559.076,2.400
559.348,2.380
559.621,2.331
559.893,2.325
560.166,2.343
560.438,2.357
560.711,2.330
560.983,2.305
561.256,2.299
561.528,2.325
561.801,2.364
562.074,2.426
562.346,2.497
562.619,2.561
562.892,2.561
563.164,2.512
563.437,2.484
563.710,2.470
563.983,2.426
564.255,2.359
564.528,2.374
564.801,2.462
565.074,2.525
565.346,2.491
565.619,2.447
565.892,2.463
566.165,2.468
566.438,2.403
566.711,2.315
566.984,2.286
567.257,2.299
567.529,2.348
567.802,2.437
568.075,2.543
568.348,2.564
568.621,2.551
568.894,2.501
569.167,2.478
569.440,2.440
569.713,2.370
569.986,2.341
570.259,2.305
570.532,2.339
570.805,2.369
571.078,2.400
571.351,2.427
571.625,2.447
571.898,2.426
572.171,2.365
572.444,2.320
572.717,2.356
572.990,2.447
573.263,2.453
573.536,2.400
573.809,2.289
574.083,2.243
574.356,2.265
574.629,2.374
574.902,2.452
575.175,2.478
575.448,2.416
575.721,2.370
575.995,2.346
576.268,2.348
576.541,2.387
576.814,2.435
577.087,2.494
577.361,2.525
577.634,2.528
577.907,2.463
578.180,2.369
578.453,2.309
578.727,2.323
579.000,2.354
579.273,2.392
579.546,2.455
579.820,2.553
580.093,2.593
580.366,2.559
580.639,2.473
580.913,2.439
581.186,2.432
581.459,2.462
581.732,2.429
582.005,2.411
582.279,2.379
582.552,2.398
582.825,2.421
583.098,2.445
583.372,2.479
583.645,2.509
583.918,2.553
584.191,2.566
584.464,2.559
584.738,2.543
585.011,2.540
585.284,2.540
585.557,2.523
585.831,2.532
586.104,2.597
586.377,2.724
586.650,2.808
586.923,2.815
587.196,2.764
587.470,2.680
587.743,2.626
588.016,2.585
588.289,2.610
588.562,2.672
588.835,2.696
589.109,2.663
589.382,2.587
589.655,2.527
589.928,2.501
590.201,2.494
590.474,2.566
590.747,2.644
591.020,2.729
591.293,2.759
591.567,2.771
591.840,2.733
592.113,2.686
592.386,2.611
592.659,2.551
592.932,2.530
593.205,2.575
593.478,2.624
593.751,2.618
594.024,2.592
594.297,2.556
594.570,2.549
594.843,2.592
595.116,2.659
595.389,2.717
595.662,2.707
595.934,2.716
596.207,2.748
596.480,2.810
596.753,2.860
597.026,2.872
597.299,2.872
597.572,2.857
597.844,2.833
598.117,2.768
598.390,2.722
598.663,2.696
598.936,2.729
599.208,2.769
599.481,2.818
599.754,2.849
600.026,2.795
600.299,2.727
600.572,2.676
600.844,2.678
601.117,2.662
601.390,2.659
601.662,2.678
601.935,2.704
602.207,2.720
602.480,2.761
602.752,2.800
603.025,2.794
603.297,2.789
603.570,2.846
603.842,2.982
604.115,3.075
604.387,3.140
604.660,3.123
604.932,3.118
605.204,3.158
605.477,3.261
605.749,3.404
606.021,3.512
606.294,3.598
606.566,3.609
606.838,3.671
607.110,3.772
607.383,3.946
607.655,4.111
607.927,4.298
608.199,4.480
608.471,4.628
608.743,4.671
609.015,4.674
609.287,4.684
609.559,4.737
609.831,4.817
610.103,4.863
610.375,4.868
610.647,4.786
610.919,4.658
611.191,4.536
611.463,4.451
611.735,4.370
612.007,4.244
612.278,4.127
612.550,4.067
612.822,4.072
613.094,4.112
613.365,4.103
613.637,4.137
613.909,4.143
614.180,4.177
614.452,4.148
614.723,4.094
614.995,4.037
615.266,4.028
615.538,4.096
615.809,4.182
616.081,4.202
616.352,4.173
616.623,4.145
616.895,4.164
617.166,4.187
617.437,4.217
617.709,4.264
617.980,4.344
618.251,4.443
618.522,4.557
618.793,4.687
619.065,4.851
619.336,4.900
619.607,4.876
619.878,4.856
620.149,4.956
620.420,5.068
620.691,5.118
620.962,5.169
621.232,5.268
621.503,5.322
621.774,5.356
622.045,5.382
622.316,5.516
622.586,5.664
622.857,5.830
623.128,5.902
623.398,5.949
623.669,5.955
623.940,5.988
624.210,6.012
624.481,6.136
624.751,6.256
625.021,6.367
625.292,6.401
625.562,6.491
625.833,6.585
626.103,6.683
626.373,6.730
626.643,6.833
626.914,6.955
627.184,7.114
627.454,7.233
627.724,7.331
627.994,7.438
628.264,7.559
628.534,7.634
628.804,7.681
629.074,7.775
629.344,7.922
629.614,8.062
629.884,8.124
630.154,8.158
630.424,8.182
630.693,8.205
630.963,8.231
631.233,8.270
631.502,8.396
631.772,8.619
632.041,8.864
632.311,9.068
632.581,9.223
632.850,9.366
633.119,9.438
633.389,9.495
633.658,9.584
633.928,9.791
634.197,10.053
634.466,10.338
634.735,10.623
635.004,10.813
635.274,10.960
635.543,11.072
635.812,11.238
636.081,11.419
636.350,11.617
636.619,11.821
636.888,12.041
637.157,12.272
637.426,12.540
637.694,12.817
637.963,13.074
638.232,13.333
638.501,13.604
638.769,13.942
639.038,14.317
639.307,14.748
639.575,15.179
639.844,15.530
640.112,15.819
640.381,16.067
640.649,16.392
640.917,16.812
641.186,17.276
641.454,17.773
641.722,18.221
641.991,18.680
642.259,19.077
642.527,19.497
642.795,19.971
643.063,20.431
643.331,20.917
643.599,21.411
643.867,22.028
644.135,22.649
644.403,23.306
644.671,23.923
644.939,24.594
645.206,25.239
645.474,25.944
645.742,26.629
646.009,27.297
646.277,28.000
646.545,28.731
646.812,29.558
647.080,30.400
647.347,31.240
647.615,32.016
647.882,32.694
648.149,33.359
648.417,34.063
648.684,34.825
648.951,35.647
649.219,36.454
649.486,37.237
649.753,37.937
650.020,38.574
650.287,39.165
650.554,39.741
650.821,40.327
651.088,40.923
651.355,41.594
651.622,42.242
651.889,42.958
652.155,43.660
652.422,44.453
652.689,45.304
652.956,46.195
653.222,47.095
653.489,48.024
653.755,48.899
654.022,49.714
654.288,50.492
654.555,51.349
654.821,52.335
655.088,53.381
655.354,54.445
655.620,55.508
655.887,56.539
656.153,57.547
656.419,58.475
656.685,59.319
656.951,60.094
657.217,60.825
657.483,61.514
657.749,62.141
658.015,62.655
658.281,62.994
658.547,63.092
658.813,62.971
659.079,62.657
659.345,62.141
659.610,61.468
659.876,60.628
660.142,59.687
660.407,58.621
660.673,57.444
660.939,56.166
661.204,54.725
661.470,53.161
661.735,51.484
662.000,49.766
662.266,47.969
662.531,46.082
662.796,44.143
663.062,42.204
663.327,40.272
663.592,38.408
663.857,36.589
664.122,34.825
664.388,33.094
664.653,31.481
664.918,30.012
665.183,28.622
665.448,27.331
665.712,26.133
665.977,25.055
666.242,24.036
666.507,22.974
666.772,21.983
667.037,21.050
667.301,20.293
667.566,19.562
667.831,18.908
668.095,18.258
668.360,17.667
668.624,17.042
668.889,16.542
669.153,16.057
669.418,15.629
669.682,15.166
669.946,14.740
670.211,14.372
670.475,13.994
670.739,13.618
671.004,13.242
671.268,12.915
671.532,12.622
671.796,12.129
672.060,11.598
672.324,11.036
672.588,10.662
672.852,10.328
673.116,10.121
673.380,9.958
673.644,9.537
673.908,8.987
674.172,8.404
674.436,8.101
674.700,7.847
674.963,7.596
675.227,7.323
675.491,6.981
675.754,6.672
676.018,6.380
676.282,6.180
676.545,5.958
676.809,5.705
677.072,5.434
677.336,5.192
677.599,5.034
677.863,4.877
678.126,4.754
678.389,4.671
678.653,4.599
678.916,4.466
679.179,4.238
679.442,4.046
679.706,3.948
679.969,3.883
680.232,3.826
680.495,3.779
680.758,3.754
681.021,3.671
681.284,3.531
681.547,3.380
681.810,3.319
682.073,3.342
682.336,3.357
682.599,3.305
682.862,3.220
683.125,3.171
683.388,3.171
683.651,3.136
683.913,3.085
684.176,2.971
684.439,2.856
684.702,2.722
684.964,2.649
685.227,2.631
685.490,2.683
685.752,2.777
686.015,2.812
686.277,2.777
686.540,2.688
686.802,2.602
687.065,2.584
687.327,2.598
687.590,2.628
687.852,2.587
688.115,2.497
688.377,2.434
688.639,2.418
688.902,2.435
689.164,2.475
689.426,2.546
689.689,2.610
689.951,2.608
690.213,2.572
690.475,2.546
690.737,2.541
691.000,2.517
691.262,2.486
691.524,2.499
691.786,2.559
692.048,2.626
692.310,2.618
692.572,2.517
692.834,2.398
693.096,2.343
693.358,2.393
693.620,2.494
693.882,2.584
694.144,2.598
694.406,2.541
694.668,2.486
694.930,2.440
695.192,2.424
695.453,2.431
695.715,2.453
695.977,2.447
696.239,2.382
696.501,2.333
696.762,2.346
697.024,2.385
697.286,2.370
697.548,2.344
697.809,2.331
698.071,2.338
698.333,2.344
698.594,2.344
698.856,2.383
699.118,2.414
699.379,2.444
699.641,2.478
699.902,2.517
700.164,2.515
700.426,2.476
700.687,2.414
700.949,2.403
701.210,2.398
701.472,2.382
701.733,2.343
701.995,2.335
702.256,2.341
702.518,2.348
702.779,2.330
703.041,2.380
703.302,2.458
703.563,2.479
703.825,2.421
704.086,2.361
704.348,2.349
704.609,2.385
704.871,2.455
705.132,2.548
705.393,2.548
705.655,2.507
705.916,2.476
706.177,2.496
706.439,2.527
706.700,2.541
706.961,2.546
707.223,2.549
707.484,2.471
707.745,2.413
708.007,2.365
708.268,2.349
708.529,2.322
708.790,2.243
709.052,2.201
709.313,2.216
709.574,2.284
709.835,2.348
710.097,2.354
710.358,2.284
710.619,2.211
710.881,2.142
711.142,2.126
711.403,2.094
711.664,2.097
711.926,2.064
712.187,2.094
712.448,2.129
712.709,2.204
712.970,2.265
713.232,2.307
713.493,2.330
713.754,2.333
714.015,2.343
714.277,2.396
714.538,2.466
714.799,2.569
715.060,2.610
715.322,2.616
715.583,2.551
715.844,2.486
716.105,2.413
716.367,2.364
716.628,2.354
716.889,2.359
717.150,2.335
717.411,2.281
717.673,2.279
717.934,2.325
718.195,2.388
718.457,2.380
718.718,2.315
718.979,2.269
719.240,2.274
719.502,2.330
719.763,2.377
720.024,2.400
720.286,2.403
720.547,2.357
720.808,2.312
721.069,2.289
721.331,2.328
721.592,2.413
721.853,2.460
722.115,2.478
722.376,2.481
722.638,2.470
722.899,2.462
723.160,2.409
723.422,2.361
723.683,2.325
723.944,2.348
724.206,2.367
724.467,2.370
724.729,2.349
724.990,2.380
725.252,2.427
725.513,2.405
725.775,2.315
726.036,2.232
726.298,2.222
726.559,2.281
726.821,2.309
727.082,2.330
727.344,2.304
727.605,2.302
727.867,2.266
728.128,2.279
728.390,2.282
728.652,2.336
728.913,2.413
729.175,2.473
729.436,2.484
729.698,2.483
729.960,2.462
730.221,2.437
730.483,2.348
730.745,2.304
731.007,2.294
731.268,2.305
731.530,2.320
731.792,2.328
732.054,2.362
732.315,2.390
732.577,2.419
732.839,2.393
733.101,2.339
733.363,2.291
733.625,2.274
733.887,2.297
734.149,2.309
734.411,2.343
734.673,2.367
734.935,2.385
735.197,2.362
735.459,2.370
735.721,2.385
735.983,2.387
736.245,2.315
736.507,2.295
736.769,2.330
737.031,2.387
737.293,2.367
737.555,2.300
737.818,2.258
738.080,2.222
738.342,2.225
738.604,2.216
738.867,2.227
739.129,2.224
739.391,2.224
739.654,2.230
739.916,2.245
740.178,2.282
740.441,2.344
740.703,2.377
740.966,2.357
741.228,2.318
741.491,2.287
741.753,2.302
742.016,2.302
742.278,2.304
742.541,2.310
742.804,2.331
743.066,2.379
743.329,2.393
743.592,2.370
743.854,2.361
744.117,2.388
744.380,2.427
744.643,2.414
744.905,2.365
745.168,2.343
745.431,2.326
745.694,2.300
745.957,2.271
746.220,2.250
746.483,2.243
746.746,2.239
747.009,2.282
747.272,2.395
747.535,2.502
747.798,2.536
748.061,2.465
748.324,2.356
748.588,2.279
748.851,2.265
749.114,2.273
749.377,2.313
749.641,2.330
749.904,2.367
750.167,2.411
750.431,2.457
750.694,2.501
750.958,2.514
751.221,2.483
751.485,2.382
751.748,2.309
752.012,2.309
752.275,2.419
752.539,2.471
752.803,2.447
753.066,2.348
753.330,2.274
753.594,2.258
753.857,2.256
754.121,2.292
754.385,2.333
754.649,2.382
754.913,2.406
755.177,2.445
755.441,2.422
755.705,2.372
755.969,2.291
756.233,2.310
756.497,2.359
756.761,2.382
757.025,2.344
757.289,2.315
757.553,2.310
757.818,2.333
758.082,2.352
758.346,2.361
758.610,2.372
758.875,2.374
759.139,2.374
759.404,2.352
759.668,2.322
759.932,2.322
760.197,2.357
760.462,2.382
760.726,2.379
760.991,2.357
761.255,2.361
761.520,2.364
761.785,2.344
762.049,2.278
762.314,2.224
762.579,2.235
762.844,2.312
763.109,2.372
763.374,2.375
763.639,2.357
763.903,2.331
764.168,2.313
764.433,2.299
764.699,2.356
764.964,2.400
765.229,2.400
765.494,2.330
765.759,2.286
766.024,2.273
766.290,2.312
766.555,2.359
766.820,2.390
767.086,2.408
767.351,2.405
767.616,2.400
767.882,2.375
768.147,2.348
768.413,2.326
768.678,2.292
768.944,2.291
769.209,2.320
769.475,2.385
769.741,2.432
770.006,2.465
770.272,2.486
770.538,2.496
770.804,2.476
771.070,2.460
771.335,2.475
771.601,2.530
771.867,2.561
772.133,2.549
772.399,2.515
772.665,2.432
772.931,2.392
773.197,2.408
773.464,2.479
773.730,2.548
773.996,2.553
774.262,2.562
774.528,2.533
774.795,2.536
775.061,2.561
775.327,2.580
775.594,2.535
775.860,2.445
776.126,2.331
776.393,2.253
776.659,2.209
776.926,2.196
777.193,2.212
777.459,2.253
777.726,2.268
777.992,2.281
778.259,2.245
778.526,2.263
778.793,2.276
779.059,2.313
779.326,2.364
779.593,2.403
779.860,2.463
780.127,2.471
780.394,2.465
780.661,2.445
780.928,2.405
781.195,2.356
781.462,2.297
781.729,2.297
781.996,2.323
782.263,2.352
782.530,2.393
782.797,2.429
783.064,2.400
783.332,2.354
783.599,2.294
783.866,2.312
784.134,2.312
784.401,2.322
784.668,2.318
784.936,2.330
785.203,2.322
785.470,2.279
785.738,2.248
786.005,2.235
786.273,2.224
786.541,2.196
786.808,2.204
787.076,2.239
787.343,2.286
787.611,2.331
787.879,2.409
788.146,2.426
788.414,2.450
788.682,2.403
788.950,2.398
789.217,2.392
789.485,2.453
789.753,2.505
790.021,2.473
790.289,2.377
790.557,2.256
790.825,2.208
791.093,2.234
791.361,2.330
791.629,2.414
791.897,2.471
792.165,2.460
792.433,2.424
792.701,2.313
792.969,2.219
793.237,2.149
793.505,2.186
793.773,2.266
794.042,2.307
794.310,2.300
794.578,2.278
794.846,2.266
795.115,2.261
795.383,2.265
795.651,2.322
795.920,2.365
796.188,2.367
796.456,2.377
796.725,2.382
796.993,2.434
797.261,2.452
797.530,2.445
797.798,2.411
798.067,2.424
798.335,2.478
798.604,2.484
798.872,2.398
799.141,2.307
799.409,2.265
799.678,2.281
799.946,2.315
800.215,2.346
800.483,2.339
800.752,2.326
801.020,2.297
801.289,2.282
801.558,2.274
801.826,2.292
802.095,2.278
802.363,2.276
802.632,2.291
802.901,2.354
803.169,2.395
803.438,2.385
803.707,2.335
803.976,2.265
804.244,2.250
804.513,2.268
804.782,2.263
805.050,2.243
805.319,2.250
805.588,2.312
805.857,2.385
806.125,2.403
806.394,2.382
806.663,2.310
806.931,2.248
807.200,2.212
807.469,2.227
807.738,2.234
808.006,2.234
808.275,2.261
808.544,2.349
808.813,2.429
809.082,2.444
809.350,2.390
809.619,2.351
809.888,2.305
810.157,2.282
810.425,2.258
810.694,2.266
810.963,2.304
811.232,2.295
811.500,2.266
811.769,2.196
812.038,2.201
812.306,2.239
812.575,2.322
812.844,2.367
813.113,2.388
813.381,2.346
813.650,2.335
813.919,2.361
814.187,2.422
814.456,2.449
814.725,2.457
814.993,2.419
815.262,2.395
815.531,2.375
815.799,2.387
816.068,2.361
816.336,2.294
816.605,2.258
816.873,2.268
817.142,2.320
817.411,2.372
817.679,2.398
817.948,2.437
818.216,2.505
818.485,2.659
818.753,2.800
819.021,2.729
819.290,2.501
819.558,2.299
819.827,2.294
820.095,2.370
820.363,2.406
820.632,2.398
820.900,2.390
821.168,2.401
821.437,2.444
821.705,2.449
821.973,2.450
822.241,2.427
822.509,2.429
822.777,2.392
823.046,2.362
823.314,2.362
823.582,2.400
823.850,2.422
824.118,2.442
824.386,2.435
824.654,2.361
824.922,2.258
825.190,2.183
825.457,2.229
825.725,2.310
825.993,2.330
826.261,2.294
826.529,2.261
826.796,2.273
827.064,2.276
827.332,2.281
827.599,2.310
827.867,2.398
828.134,2.450
828.402,2.413
828.669,2.330
828.937,2.276
829.204,2.317
829.471,2.431
829.739,2.496
830.006,2.515
830.273,2.453
830.540,2.395
830.807,2.305
831.075,2.274
831.342,2.309
831.609,2.349
831.876,2.377
832.142,2.390
832.409,2.419
832.676,2.408
832.943,2.339
833.210,2.269
833.476,2.235
833.743,2.252
834.010,2.286
834.276,2.271
834.543,2.239
834.809,2.252
835.076,2.297
835.342,2.328
835.608,2.379
835.874,2.440
836.141,2.449
836.407,2.411
836.673,2.333
836.939,2.310
837.205,2.282
837.471,2.287
837.737,2.299
838.002,2.309
838.268,2.289
838.534,2.304
838.799,2.302
839.065,2.344
839.330,2.357
839.596,2.365
839.861,2.374
840.127,2.406
840.392,2.445
840.657,2.463
840.922,2.488
841.187,2.525
841.452,2.528
841.717,2.519
841.982,2.468
842.247,2.393
842.511,2.320
842.776,2.300
843.041,2.335
843.305,2.330
843.570,2.307
843.834,2.295
844.098,2.281
844.362,2.279
844.627,2.245
844.891,2.240
845.155,2.255
845.419,2.304
845.682,2.348
845.946,2.361
846.210,2.380
846.474,2.370
846.737,2.377
847.001,2.354
847.264,2.295
847.527,2.261
847.790,2.255
848.054,2.291
848.317,2.265
848.580,2.234
848.843,2.221
849.105,2.287
849.368,2.388
849.631,2.460
849.893,2.496
850.156,2.523
850.418,2.540
850.680,2.471
850.943,2.388
851.205,2.382
851.467,2.398
851.729,2.374
851.991,2.331
852.252,2.348
852.514,2.416
852.776,2.452
853.037,2.476
853.298,2.453
853.560,2.388
853.821,2.313
854.082,2.227
854.343,2.247
854.604,2.330
854.865,2.497
855.126,2.593
855.386,2.637
855.647,2.615
855.907,2.569
856.168,2.494
856.428,2.411
856.688,2.374
856.948,2.299
857.208,2.221
857.468,2.190
857.727,2.227
857.987,2.278
858.247,2.304
858.506,2.365
858.765,2.408
859.024,2.377
859.284,2.309
859.543,2.248
859.801,2.237
860.060,2.245
860.319,2.320
860.577,2.403
860.836,2.449
861.094,2.458
861.352,2.442
861.611,2.392
861.869,2.309
862.127,2.271
862.384,2.304
862.642,2.339
862.900,2.390
863.157,2.424
863.414,2.413
863.672,2.344
863.929,2.243
864.186,2.216
864.443,2.243
864.699,2.284
864.956,2.315
865.212,2.266
865.469,2.247
865.725,2.269
865.981,2.352
866.237,2.388
866.493,2.401
866.749,2.348
867.005,2.320
867.260,2.266
867.516,2.234
867.771,2.201
868.026,2.201
868.282,2.282
868.536,2.344
868.791,2.349
869.046,2.274
869.301,2.221
869.555,2.217
869.809,2.286
870.064,2.354
870.318,2.411
870.572,2.462
870.826,2.401
871.079,2.325
871.333,2.247
871.586,2.258
871.840,2.271
872.093,2.260
872.346,2.291
872.599,2.380
872.852,2.483
873.105,2.528
873.357,2.489
873.610,2.405
873.862,2.382
874.114,2.409
874.366,2.452
874.618,2.424
874.870,2.322
875.121,2.214
875.373,2.168
875.624,2.193
875.876,2.232
876.127,2.242
876.378,2.250
876.629,2.242
876.879,2.266
877.130,2.291
877.381,2.273
877.631,2.195
877.881,2.126
878.131,2.164
878.381,2.279
878.631,2.426
878.881,2.496
879.130,2.499
879.380,2.444
879.629,2.390
879.878,2.331
880.127,2.294
880.376,2.297
880.625,2.367
880.873,2.444
881.122,2.492
881.370,2.483
881.618,2.424
881.866,2.352
882.114,2.291
882.362,2.263
882.610,2.289
882.857,2.328
883.105,2.356
883.352,2.302
883.599,2.242
883.846,2.191
884.093,2.186
884.340,2.219
884.586,2.291
884.833,2.348
885.079,2.375
885.325,2.343
885.571,2.330
885.817,2.313
886.063,2.351
886.309,2.372
886.554,2.426
886.800,2.455
887.045,2.478
887.290,2.427
887.535,2.341
887.780,2.299
888.025,2.336
888.270,2.432
888.514,2.533
888.758,2.551
889.003,2.527
889.247,2.396
889.491,2.367
889.735,2.383
889.978,2.468
890.222,2.468
890.465,2.421
890.709,2.361
890.952,2.300
891.195,2.245
891.438,2.227
891.681,2.209
891.923,2.219
892.166,2.242
892.408,2.268
892.651,2.250
892.893,2.199
893.135,2.175
893.377,2.195
893.619,2.225
893.861,2.281
894.102,2.333
894.344,2.432
894.585,2.530
894.826,2.602
895.067,2.549
895.308,2.470
895.549,2.364
895.790,2.307
896.031,2.237
896.271,2.243
896.512,2.315
896.752,2.396
896.992,2.411
897.232,2.357
897.472,2.310
897.712,2.349
897.952,2.452
898.191,2.510
898.431,2.489
898.670,2.489
898.910,2.512
899.149,2.577
899.388,2.610
899.627,2.610
899.866,2.556
900.105,2.462
900.343,2.403
900.582,2.396
900.820,2.426
901.059,2.499
901.297,2.558
901.535,2.504
901.773,2.383
902.011,2.273
902.249,2.196
902.487,2.164
902.725,2.160
902.963,2.232
903.200,2.271
903.438,2.273
903.675,2.278
903.912,2.304
904.150,2.370
904.387,2.400
904.624,2.364
904.861,2.299
905.098,2.242
905.334,2.258
905.571,2.240
905.808,2.240
906.045,2.273
906.281,2.333
906.518,2.362
906.754,2.392
906.990,2.408
907.227,2.414
907.463,2.354
907.699,2.294
907.935,2.294
908.171,2.349
908.407,2.367
908.643,2.359
908.879,2.333
909.115,2.375
909.350,2.421
909.586,2.447
909.822,2.449
910.057,2.484
910.293,2.593
910.528,2.683
910.764,2.660
910.999,2.624
911.235,2.548
911.470,2.551
911.706,2.499
911.941,2.486
912.176,2.444
912.412,2.383
912.647,2.361
912.882,2.383
913.117,2.416
913.352,2.405
913.588,2.348
913.823,2.317
914.058,2.304
914.293,2.331
914.528,2.320
914.763,2.286
914.999,2.250
915.234,2.245
915.469,2.281
915.704,2.297
915.939,2.287
916.174,2.265
916.409,2.261
916.645,2.335
916.880,2.405
917.115,2.453
917.350,2.422
917.586,2.380
917.821,2.357
918.056,2.385
918.292,2.442
918.527,2.452
918.763,2.405
918.998,2.339
919.234,2.370
919.469,2.468
919.705,2.527
919.940,2.507
920.176,2.453
920.412,2.475
920.648,2.483
920.884,2.465
921.120,2.403
921.356,2.362
921.592,2.338
921.828,2.318
922.065,2.313
922.301,2.351
922.537,2.432
922.774,2.486
923.011,2.458
923.247,2.356
923.484,2.322
923.721,2.352
923.958,2.422
924.195,2.424
924.433,2.401
924.670,2.330
924.908,2.252
925.145,2.229
925.383,2.286
925.621,2.364
925.859,2.401
926.097,2.427
926.335,2.435
926.574,2.458
926.813,2.466
927.051,2.463
927.290,2.444
927.529,2.489
927.769,2.580
928.008,2.644
928.248,2.536
928.487,2.418
928.727,2.356
928.967,2.440
929.208,2.519
929.448,2.528
929.689,2.471
929.930,2.385
930.171,2.315
930.413,2.282
930.654,2.284
930.896,2.252
931.138,2.212
931.380,2.162
931.623,2.204
931.865,2.284
932.108,2.375
932.352,2.439
932.595,2.457
932.839,2.483
933.083,2.447
933.327,2.401
933.571,2.318
933.816,2.322
934.061,2.349
934.307,2.377
934.552,2.318
934.798,2.287
935.045,2.289
935.291,2.323
935.538,2.343
935.785,2.374
936.033,2.424
936.281,2.462
936.529,2.476
936.777,2.466
937.026,2.414
937.275,2.372
937.525,2.320
937.775,2.287
938.025,2.260
938.276,2.245
938.527,2.252
938.778,2.255
939.030,2.239
939.282,2.230
939.535,2.235
939.788,2.292
940.041,2.291
940.295,2.266
940.550,2.256
940.804,2.315
941.059,2.380
941.315,2.367
941.571,2.297
941.828,2.242
942.085,2.235
942.342,2.276
942.600,2.294
942.858,2.304
943.117,2.266
943.377,2.239
943.636,2.193
943.897,2.183
944.158,2.203
944.419,2.268
944.681,2.315
944.944,2.351
945.207,2.374
945.470,2.408
945.734,2.434
945.999,2.478
946.264,2.546
946.530,2.579
946.797,2.567
947.064,2.520
947.331,2.483
947.600,2.411
947.869,2.331
948.138,2.263
948.408,2.230
948.679,2.242
948.950,2.282
949.222,2.284
949.495,2.258
949.768,2.250
950.043,2.331
