Wavelength (nm),Intensity W7.1,,C:/Users/Brend/Desktop/LED Spectras v2/Spectrometer Data (White).sp,,,W7.1,
379.792,2.330,,2018-06-15 10:46:17,,Integration Time,204 ms,
380.000,2.324,,Analyze Light,,Number of Scans to Average,25,
380.209,2.321,,,,Smoothing,1,
380.418,2.337
380.627,2.365
380.837,2.392
381.048,2.406
381.259,2.406
381.471,2.400
381.683,2.402
381.896,2.416
382.110,2.426
382.324,2.446
382.538,2.467
382.753,2.489
382.969,2.484
383.185,2.474
383.402,2.463
383.619,2.476
383.837,2.494
384.055,2.529
384.274,2.557
384.493,2.577
384.712,2.586
384.932,2.595
385.153,2.607
385.374,2.623
385.596,2.638
385.818,2.664
386.040,2.691
386.263,2.714
386.487,2.716
386.710,2.714
386.935,2.700
387.159,2.701
387.385,2.700
387.610,2.710
387.836,2.716
388.063,2.730
388.289,2.748
388.517,2.758
388.744,2.755
388.972,2.767
389.201,2.780
389.430,2.803
389.659,2.814
389.889,2.830
390.119,2.840
390.349,2.846
390.580,2.862
390.811,2.878
391.042,2.886
391.274,2.889
391.507,2.893
391.739,2.897
391.972,2.893
392.205,2.902
392.439,2.925
392.673,2.956
392.907,2.979
393.142,3.000
393.377,3.018
393.612,3.044
393.848,3.060
394.084,3.071
394.320,3.071
394.557,3.083
394.794,3.093
395.031,3.115
395.269,3.132
395.507,3.155
395.745,3.162
395.983,3.173
396.222,3.186
396.461,3.214
396.700,3.238
396.940,3.254
397.180,3.259
397.420,3.255
397.660,3.247
397.901,3.244
398.142,3.250
398.383,3.258
398.625,3.262
398.866,3.278
399.108,3.310
399.351,3.361
399.593,3.379
399.836,3.384
400.079,3.365
400.322,3.361
400.566,3.352
400.809,3.355
401.053,3.359
401.298,3.374
401.542,3.389
401.787,3.412
402.031,3.428
402.277,3.444
402.522,3.449
402.767,3.462
403.013,3.462
403.259,3.474
403.505,3.479
403.752,3.491
403.998,3.495
404.245,3.522
404.492,3.547
404.739,3.571
404.986,3.577
405.234,3.587
405.482,3.594
405.730,3.601
405.978,3.606
406.226,3.608
406.475,3.601
406.723,3.607
406.972,3.627
407.221,3.663
407.470,3.685
407.720,3.705
407.969,3.699
408.219,3.705
408.469,3.712
408.719,3.735
408.969,3.748
409.219,3.769
409.470,3.787
409.720,3.811
409.971,3.822
410.222,3.842
410.473,3.850
410.724,3.859
410.976,3.861
411.227,3.876
411.479,3.889
411.731,3.908
411.983,3.912
412.235,3.921
412.487,3.920
412.740,3.936
412.992,3.948
413.245,3.963
413.497,3.965
413.750,3.969
414.003,3.967
414.257,3.967
414.510,3.965
414.763,3.980
415.017,3.994
415.270,4.010
415.524,4.008
415.778,4.008
416.032,4.009
416.286,4.030
416.540,4.046
416.794,4.064
417.049,4.069
417.303,4.077
417.558,4.083
417.812,4.090
418.067,4.092
418.322,4.097
418.577,4.095
418.832,4.096
419.088,4.088
419.343,4.098
419.598,4.097
419.854,4.111
420.109,4.119
420.365,4.153
420.621,4.175
420.876,4.207
421.132,4.220
421.388,4.236
421.645,4.242
421.901,4.261
422.157,4.280
422.413,4.310
422.670,4.329
422.926,4.353
423.183,4.370
423.439,4.412
423.696,4.456
423.953,4.529
424.210,4.585
424.467,4.628
424.724,4.649
424.981,4.674
425.238,4.717
425.495,4.790
425.753,4.862
426.010,4.938
426.267,4.995
426.525,5.071
426.782,5.142
427.040,5.225
427.298,5.310
427.555,5.416
427.813,5.512
428.071,5.611
428.329,5.698
428.587,5.795
428.845,5.890
429.103,6.004
429.361,6.125
429.619,6.257
429.878,6.387
430.136,6.533
430.394,6.678
430.653,6.857
430.911,7.048
431.170,7.252
431.428,7.430
431.687,7.607
431.946,7.782
432.204,7.977
432.463,8.181
432.722,8.405
432.981,8.632
433.240,8.876
433.499,9.128
433.758,9.407
434.017,9.669
434.276,9.939
434.535,10.203
434.794,10.489
435.053,10.787
435.312,11.101
435.572,11.421
435.831,11.758
436.090,12.120
436.350,12.509
436.609,12.896
436.869,13.280
437.128,13.671
437.388,14.083
437.647,14.509
437.907,14.964
438.166,15.427
438.426,15.896
438.686,16.356
438.946,16.852
439.205,17.376
439.465,17.933
439.725,18.502
439.985,19.088
440.245,19.685
440.505,20.298
440.765,20.913
441.025,21.546
441.285,22.192
441.545,22.876
441.805,23.577
442.065,24.316
442.325,25.074
442.585,25.884
442.846,26.716
443.106,27.611
443.366,28.540
443.626,29.522
443.887,30.545
444.147,31.603
444.407,32.705
444.668,33.852
444.928,35.064
445.189,36.344
445.449,37.680
445.710,39.068
445.970,40.512
446.231,42.029
446.491,43.634
446.752,45.312
447.012,47.047
447.273,48.837
447.534,50.683
447.794,52.588
448.055,54.555
448.316,56.603
448.577,58.729
448.837,60.924
449.098,63.147
449.359,65.386
449.620,67.588
449.881,69.784
450.142,71.970
450.403,74.186
450.664,76.414
450.924,78.621
451.185,80.757
451.446,82.710
451.707,84.399
451.969,85.816
452.230,87.001
452.491,88.017
452.752,88.894
453.013,89.655
453.274,90.326
453.535,90.895
453.796,91.368
454.058,91.737
454.319,92.020
454.580,92.225
454.841,92.359
455.103,92.427
455.364,92.437
455.625,92.402
455.887,92.309
456.148,92.160
456.409,91.958
456.671,91.704
456.932,91.395
457.194,90.997
457.455,90.519
457.716,89.951
457.978,89.295
458.239,88.552
458.501,87.712
458.763,86.748
459.024,85.599
459.286,84.218
459.547,82.610
459.809,80.827
460.071,78.949
460.332,77.063
460.594,75.186
460.856,73.361
461.117,71.572
461.379,69.864
461.641,68.228
461.903,66.676
462.164,65.194
462.426,63.798
462.688,62.473
462.950,61.223
463.212,60.040
463.474,58.923
463.736,57.865
463.998,56.885
464.260,56.009
464.522,55.221
464.784,54.497
465.046,53.813
465.308,53.187
465.570,52.610
465.832,52.066
466.094,51.561
466.356,51.074
466.618,50.602
466.880,50.104
467.142,49.605
467.405,49.113
467.667,48.645
467.929,48.180
468.191,47.721
468.454,47.236
468.716,46.724
468.978,46.168
469.241,45.582
469.503,44.994
469.765,44.414
470.028,43.848
470.290,43.268
470.552,42.665
470.815,42.052
471.077,41.414
471.340,40.772
471.602,40.114
471.865,39.439
472.128,38.742
472.390,38.040
472.653,37.338
472.915,36.639
473.178,35.939
473.441,35.253
473.703,34.555
473.966,33.856
474.229,33.141
474.492,32.442
474.755,31.741
475.017,31.089
475.280,30.473
475.543,29.901
475.806,29.321
476.069,28.744
476.332,28.168
476.595,27.628
476.858,27.106
477.121,26.608
477.384,26.137
477.647,25.707
477.910,25.305
478.173,24.916
478.436,24.533
478.699,24.191
478.962,23.871
479.226,23.583
479.489,23.291
479.752,23.020
480.015,22.757
480.279,22.518
480.542,22.282
480.805,22.050
481.069,21.812
481.332,21.601
481.595,21.412
481.859,21.265
482.122,21.107
482.386,20.953
482.649,20.787
482.913,20.637
483.177,20.480
483.440,20.316
483.704,20.169
483.967,20.061
484.231,19.964
484.495,19.873
484.759,19.762
485.022,19.650
485.286,19.525
485.550,19.404
485.814,19.259
486.078,19.120
486.342,18.988
486.606,18.901
486.869,18.818
487.133,18.740
487.397,18.654
487.662,18.578
487.926,18.500
488.190,18.429
488.454,18.346
488.718,18.266
488.982,18.169
489.246,18.092
489.511,18.021
489.775,17.966
490.039,17.911
490.304,17.859
490.568,17.804
490.832,17.767
491.097,17.747
491.361,17.750
491.626,17.743
491.890,17.733
492.155,17.724
492.419,17.739
492.684,17.757
492.949,17.777
493.213,17.804
493.478,17.857
493.743,17.910
494.008,17.947
494.272,17.975
494.537,18.037
494.802,18.119
495.067,18.222
495.332,18.315
495.597,18.415
495.862,18.504
496.127,18.607
496.392,18.711
496.657,18.819
496.922,18.921
497.187,19.044
497.452,19.182
497.718,19.352
497.983,19.509
498.248,19.662
498.513,19.788
498.779,19.922
499.044,20.061
499.310,20.201
499.575,20.330
499.841,20.479
500.106,20.627
500.372,20.774
500.637,20.916
500.903,21.088
501.168,21.264
501.434,21.430
501.700,21.567
501.966,21.717
502.231,21.868
502.497,22.032
502.763,22.180
503.029,22.334
503.295,22.488
503.561,22.652
503.827,22.809
504.093,22.962
504.359,23.109
504.625,23.286
504.891,23.460
505.157,23.647
505.423,23.799
505.690,23.949
505.956,24.098
506.222,24.263
506.489,24.439
506.755,24.619
507.021,24.793
507.288,24.982
507.554,25.150
507.821,25.327
508.087,25.486
508.354,25.663
508.621,25.820
508.887,25.970
509.154,26.114
509.421,26.274
509.687,26.419
509.954,26.560
510.221,26.696
510.488,26.870
510.755,27.058
511.022,27.247
511.289,27.400
511.556,27.544
511.823,27.674
512.090,27.822
512.357,27.948
512.624,28.087
512.891,28.220
513.159,28.364
513.426,28.503
513.693,28.650
513.960,28.807
514.228,28.966
514.495,29.105
514.763,29.235
515.030,29.360
515.298,29.490
515.565,29.626
515.833,29.760
516.100,29.882
516.368,29.978
516.636,30.054
516.904,30.156
517.171,30.263
517.439,30.379
517.707,30.475
517.975,30.597
518.243,30.740
518.511,30.877
518.779,30.974
519.047,31.070
519.315,31.172
519.583,31.278
519.851,31.365
520.119,31.456
520.387,31.550
520.656,31.652
520.924,31.756
521.192,31.858
521.461,31.949
521.729,32.032
521.997,32.113
522.266,32.192
522.534,32.261
522.803,32.345
523.071,32.433
523.340,32.530
523.609,32.618
523.877,32.717
524.146,32.817
524.415,32.922
524.684,33.012
524.952,33.099
525.221,33.171
525.490,33.254
525.759,33.325
526.028,33.392
526.297,33.427
526.566,33.475
526.835,33.537
527.104,33.625
527.373,33.716
527.642,33.792
527.912,33.837
528.181,33.882
528.450,33.942
528.719,34.015
528.989,34.084
529.258,34.149
529.528,34.195
529.797,34.220
530.067,34.233
530.336,34.256
530.606,34.288
530.875,34.322
531.145,34.356
531.414,34.393
531.684,34.432
531.954,34.469
532.224,34.504
532.493,34.532
532.763,34.563
533.033,34.597
533.303,34.642
533.573,34.688
533.843,34.712
534.113,34.727
534.383,34.728
534.653,34.755
534.923,34.782
535.193,34.817
535.463,34.850
535.733,34.882
536.004,34.908
536.274,34.922
536.544,34.926
536.814,34.943
537.085,34.982
537.355,35.053
537.626,35.128
537.896,35.179
538.166,35.199
538.437,35.215
538.707,35.226
538.978,35.268
539.249,35.330
539.519,35.410
539.790,35.464
540.061,35.502
540.331,35.530
540.602,35.549
540.873,35.533
541.144,35.510
541.414,35.490
541.685,35.511
541.956,35.542
542.227,35.585
542.498,35.615
542.769,35.660
543.040,35.715
543.311,35.771
543.582,35.831
543.853,35.894
544.124,35.965
544.396,36.020
544.667,36.050
544.938,36.064
545.209,36.042
545.480,36.029
545.752,36.004
546.023,35.998
546.294,35.950
546.566,35.899
546.837,35.847
547.109,35.830
547.380,35.829
547.652,35.838
547.923,35.852
548.195,35.889
548.466,35.921
548.738,35.935
549.009,35.891
549.281,35.834
549.553,35.773
549.824,35.729
550.096,35.709
550.368,35.714
550.640,35.736
550.911,35.754
551.183,35.787
551.455,35.829
551.727,35.840
551.999,35.796
552.271,35.717
552.543,35.664
552.815,35.631
553.087,35.635
553.359,35.646
553.631,35.662
553.903,35.642
554.175,35.606
554.447,35.553
554.719,35.506
554.991,35.446
555.263,35.394
555.535,35.343
555.808,35.312
556.080,35.293
556.352,35.286
556.624,35.263
556.897,35.222
557.169,35.171
557.441,35.123
557.714,35.054
557.986,34.986
558.258,34.924
558.531,34.911
558.803,34.897
559.076,34.881
559.348,34.833
559.621,34.790
559.893,34.754
560.166,34.728
560.438,34.689
560.711,34.655
560.983,34.622
561.256,34.607
561.528,34.584
561.801,34.550
562.074,34.497
562.346,34.440
562.619,34.376
562.892,34.310
563.164,34.246
563.437,34.209
563.710,34.178
563.983,34.140
564.255,34.091
564.528,34.070
564.801,34.082
565.074,34.103
565.346,34.087
565.619,34.057
565.892,34.015
566.165,33.967
566.438,33.888
566.711,33.795
566.984,33.714
567.257,33.648
567.529,33.604
567.802,33.579
568.075,33.552
568.348,33.506
568.621,33.447
568.894,33.391
569.167,33.344
569.440,33.297
569.713,33.225
569.986,33.139
570.259,33.023
570.532,32.924
570.805,32.836
571.078,32.770
571.351,32.708
571.625,32.654
571.898,32.590
572.171,32.508
572.444,32.407
572.717,32.318
572.990,32.241
573.263,32.156
573.536,32.043
573.809,31.916
574.083,31.804
574.356,31.728
574.629,31.691
574.902,31.654
575.175,31.606
575.448,31.536
575.721,31.446
575.995,31.352
576.268,31.260
576.541,31.201
576.814,31.148
577.087,31.092
577.361,31.032
577.634,30.976
577.907,30.913
578.180,30.834
578.453,30.745
578.727,30.664
579.000,30.576
579.273,30.505
579.546,30.441
579.820,30.399
580.093,30.343
580.366,30.279
580.639,30.206
580.913,30.147
581.186,30.086
581.459,30.035
581.732,29.962
582.005,29.901
582.279,29.817
582.552,29.727
582.825,29.611
583.098,29.501
583.372,29.411
583.645,29.354
583.918,29.319
584.191,29.296
584.464,29.262
584.738,29.224
585.011,29.168
585.284,29.097
585.557,28.997
585.831,28.884
586.104,28.769
586.377,28.681
586.650,28.615
586.923,28.565
587.196,28.516
587.470,28.468
587.743,28.432
588.016,28.396
588.289,28.351
588.562,28.289
588.835,28.196
589.109,28.075
589.382,27.935
589.655,27.816
589.928,27.727
590.201,27.668
590.474,27.630
590.747,27.599
591.020,27.559
591.293,27.500
591.567,27.418
591.840,27.323
592.113,27.199
592.386,27.073
592.659,26.939
592.932,26.825
593.205,26.728
593.478,26.658
593.751,26.588
594.024,26.535
594.297,26.465
594.570,26.395
594.843,26.308
595.116,26.219
595.389,26.117
595.662,26.006
595.934,25.896
596.207,25.796
596.480,25.690
596.753,25.596
597.026,25.506
597.299,25.445
597.572,25.382
597.844,25.316
598.117,25.217
598.390,25.093
598.663,24.947
598.936,24.814
599.208,24.691
599.481,24.583
599.754,24.484
600.026,24.388
600.299,24.290
600.572,24.192
600.844,24.092
601.117,23.986
601.390,23.876
601.662,23.767
601.935,23.644
602.207,23.503
602.480,23.353
602.752,23.214
603.025,23.063
603.297,22.928
603.570,22.819
603.842,22.768
604.115,22.701
604.387,22.620
604.660,22.506
604.932,22.393
605.204,22.274
605.477,22.149
605.749,22.027
606.021,21.902
606.294,21.772
606.566,21.638
606.838,21.522
607.110,21.421
607.383,21.338
607.655,21.271
607.927,21.227
608.199,21.193
608.471,21.130
608.743,21.024
609.015,20.881
609.287,20.737
609.559,20.595
609.831,20.467
610.103,20.330
610.375,20.203
610.647,20.065
610.919,19.937
611.191,19.806
611.463,19.690
611.735,19.560
612.007,19.420
612.278,19.276
612.550,19.145
612.822,19.030
613.094,18.903
613.365,18.755
613.637,18.621
613.909,18.495
614.180,18.391
614.452,18.255
614.723,18.119
614.995,17.982
615.266,17.875
615.538,17.784
615.809,17.710
616.081,17.611
616.352,17.500
616.623,17.373
616.895,17.248
617.166,17.103
617.437,16.953
617.709,16.816
617.980,16.712
618.251,16.618
618.522,16.540
618.793,16.476
619.065,16.443
619.336,16.383
619.607,16.299
619.878,16.188
620.149,16.093
620.420,15.976
620.691,15.843
620.962,15.706
621.232,15.601
621.503,15.494
621.774,15.403
622.045,15.316
622.316,15.270
622.586,15.225
622.857,15.186
623.128,15.118
623.398,15.040
623.669,14.940
623.940,14.838
624.210,14.720
624.481,14.628
624.751,14.533
625.021,14.452
625.292,14.355
625.562,14.287
625.833,14.216
626.103,14.148
626.373,14.055
626.643,13.973
626.914,13.888
627.184,13.817
627.454,13.744
627.724,13.674
627.994,13.601
628.264,13.521
628.534,13.427
628.804,13.332
629.074,13.256
629.344,13.195
629.614,13.140
629.884,13.078
630.154,13.011
630.424,12.946
630.693,12.877
630.963,12.809
631.233,12.727
631.502,12.647
631.772,12.569
632.041,12.498
632.311,12.408
632.581,12.314
632.850,12.223
633.119,12.137
633.389,12.059
633.658,11.997
633.928,11.964
634.197,11.947
634.466,11.925
634.735,11.893
635.004,11.829
635.274,11.757
635.543,11.674
635.812,11.601
636.081,11.531
636.350,11.472
636.619,11.415
636.888,11.353
637.157,11.286
637.426,11.227
637.694,11.171
637.963,11.112
638.232,11.055
638.501,10.997
638.769,10.946
639.038,10.888
639.307,10.839
639.575,10.786
639.844,10.712
640.112,10.624
640.381,10.531
640.649,10.456
640.917,10.395
641.186,10.338
641.454,10.290
641.722,10.240
641.991,10.191
642.259,10.122
642.527,10.047
642.795,9.983
643.063,9.922
643.331,9.869
643.599,9.814
643.867,9.788
644.135,9.755
644.403,9.728
644.671,9.682
644.939,9.639
645.206,9.583
645.474,9.528
645.742,9.464
646.009,9.396
646.277,9.333
646.545,9.274
646.812,9.235
647.080,9.197
647.347,9.156
647.615,9.095
647.882,9.013
648.149,8.933
648.417,8.857
648.684,8.794
648.951,8.748
649.219,8.718
649.486,8.683
649.753,8.641
650.020,8.582
650.287,8.524
650.554,8.449
650.821,8.373
651.088,8.294
651.355,8.246
651.622,8.201
651.889,8.164
652.155,8.110
652.422,8.063
652.689,8.019
652.956,7.968
653.222,7.918
653.489,7.881
653.755,7.829
654.022,7.749
654.288,7.644
654.555,7.563
654.821,7.515
655.088,7.478
655.354,7.439
655.620,7.403
655.887,7.361
656.153,7.318
656.419,7.263
656.685,7.206
656.951,7.149
657.217,7.092
657.483,7.034
657.749,6.979
658.015,6.927
658.281,6.876
658.547,6.816
658.813,6.758
659.079,6.699
659.345,6.632
659.610,6.563
659.876,6.503
660.142,6.463
660.407,6.422
660.673,6.384
660.939,6.351
661.204,6.312
661.470,6.275
661.735,6.229
662.000,6.191
662.266,6.147
662.531,6.100
662.796,6.047
663.062,5.992
663.327,5.934
663.592,5.891
663.857,5.852
664.122,5.815
664.388,5.766
664.653,5.725
664.918,5.686
665.183,5.653
665.448,5.629
665.712,5.610
665.977,5.590
666.242,5.552
666.507,5.487
666.772,5.425
667.037,5.362
667.301,5.327
667.566,5.290
667.831,5.264
668.095,5.226
668.360,5.190
668.624,5.134
668.889,5.099
669.153,5.056
669.418,5.032
669.682,5.003
669.946,4.984
670.211,4.972
670.475,4.960
670.739,4.946
671.004,4.920
671.268,4.900
671.532,4.895
671.796,4.846
672.060,4.785
672.324,4.708
672.588,4.676
672.852,4.657
673.116,4.671
673.380,4.691
673.644,4.635
673.908,4.543
674.172,4.448
674.436,4.423
674.700,4.401
674.963,4.376
675.227,4.346
675.491,4.305
675.754,4.265
676.018,4.227
676.282,4.204
676.545,4.171
676.809,4.131
677.072,4.086
677.336,4.051
677.599,4.032
677.863,4.005
678.126,3.978
678.389,3.963
678.653,3.957
678.916,3.943
679.179,3.904
679.442,3.870
679.706,3.852
679.969,3.831
680.232,3.807
680.495,3.787
680.758,3.770
681.021,3.740
681.284,3.693
681.547,3.653
681.810,3.634
682.073,3.638
682.336,3.636
682.599,3.616
682.862,3.585
683.125,3.566
683.388,3.559
683.651,3.550
683.913,3.530
684.176,3.489
684.439,3.444
684.702,3.393
684.964,3.356
685.227,3.334
685.490,3.326
685.752,3.330
686.015,3.320
686.277,3.296
686.540,3.261
686.802,3.222
687.065,3.198
687.327,3.186
687.590,3.175
687.852,3.152
688.115,3.112
688.377,3.083
688.639,3.064
688.902,3.053
689.164,3.044
689.426,3.043
689.689,3.039
689.951,3.018
690.213,2.987
690.475,2.962
690.737,2.941
691.000,2.916
691.262,2.893
691.524,2.879
691.786,2.881
692.048,2.884
692.310,2.875
692.572,2.845
692.834,2.810
693.096,2.790
693.358,2.787
693.620,2.791
693.882,2.791
694.144,2.781
694.406,2.754
694.668,2.725
694.930,2.694
695.192,2.667
695.453,2.647
695.715,2.633
695.977,2.620
696.239,2.599
696.501,2.584
696.762,2.578
697.024,2.572
697.286,2.550
697.548,2.526
697.809,2.509
698.071,2.498
698.333,2.485
698.594,2.470
698.856,2.465
699.118,2.460
699.379,2.453
699.641,2.446
699.902,2.441
700.164,2.429
700.426,2.411
700.687,2.388
700.949,2.378
701.210,2.367
701.472,2.353
701.733,2.330
701.995,2.317
702.256,2.312
702.518,2.304
702.779,2.290
703.041,2.290
703.302,2.299
703.563,2.292
703.825,2.266
704.086,2.237
704.348,2.219
704.609,2.214
704.871,2.223
705.132,2.238
705.393,2.230
705.655,2.210
705.916,2.190
706.177,2.176
706.439,2.168
706.700,2.158
706.961,2.151
707.223,2.144
707.484,2.120
707.745,2.097
708.007,2.068
708.268,2.040
708.529,2.011
708.790,1.979
709.052,1.958
709.313,1.950
709.574,1.951
709.835,1.951
710.097,1.936
710.358,1.908
710.619,1.880
710.881,1.854
711.142,1.837
711.403,1.819
711.664,1.809
711.926,1.791
712.187,1.788
712.448,1.787
712.709,1.796
712.970,1.797
713.232,1.795
713.493,1.792
713.754,1.787
714.015,1.784
714.277,1.785
714.538,1.789
714.799,1.799
715.060,1.801
715.322,1.799
715.583,1.783
715.844,1.763
716.105,1.743
716.367,1.729
716.628,1.725
716.889,1.722
717.150,1.709
717.411,1.687
717.673,1.671
717.934,1.663
718.195,1.656
718.457,1.640
718.718,1.619
718.979,1.609
719.240,1.613
719.502,1.627
719.763,1.636
720.024,1.638
720.286,1.636
720.547,1.623
720.808,1.608
721.069,1.594
721.331,1.598
721.592,1.610
721.853,1.614
722.115,1.612
722.376,1.608
722.638,1.604
722.899,1.598
723.160,1.579
723.422,1.559
723.683,1.545
723.944,1.550
724.206,1.556
724.467,1.558
724.729,1.554
724.990,1.559
725.252,1.569
725.513,1.562
725.775,1.536
726.036,1.509
726.298,1.498
726.559,1.510
726.821,1.520
727.082,1.525
727.344,1.520
727.605,1.514
727.867,1.502
728.128,1.499
728.390,1.499
728.652,1.516
728.913,1.542
729.175,1.559
729.436,1.565
729.698,1.562
729.960,1.554
730.221,1.541
730.483,1.516
730.745,1.505
731.007,1.499
731.268,1.497
731.530,1.492
731.792,1.488
732.054,1.491
732.315,1.500
732.577,1.509
732.839,1.503
733.101,1.490
733.363,1.480
733.625,1.479
733.887,1.481
734.149,1.479
734.411,1.483
734.673,1.490
734.935,1.497
735.197,1.496
735.459,1.500
735.721,1.503
735.983,1.499
736.245,1.479
736.507,1.471
736.769,1.481
737.031,1.496
737.293,1.490
737.555,1.472
737.818,1.457
738.080,1.450
738.342,1.449
738.604,1.449
738.867,1.453
739.129,1.452
739.391,1.448
739.654,1.445
739.916,1.449
740.178,1.460
740.441,1.475
740.703,1.484
740.966,1.482
741.228,1.475
741.491,1.469
741.753,1.473
742.016,1.472
742.278,1.470
742.541,1.465
742.804,1.467
743.066,1.477
743.329,1.480
743.592,1.475
743.854,1.471
744.117,1.478
744.380,1.489
744.643,1.487
744.905,1.476
745.168,1.469
745.431,1.463
745.694,1.456
745.957,1.449
746.220,1.442
746.483,1.436
746.746,1.435
747.009,1.450
747.272,1.483
747.535,1.509
747.798,1.512
748.061,1.492
748.324,1.466
748.588,1.455
748.851,1.454
749.114,1.456
749.377,1.461
749.641,1.459
749.904,1.464
750.167,1.473
750.431,1.483
750.694,1.492
750.958,1.491
751.221,1.481
751.485,1.458
751.748,1.441
752.012,1.442
752.275,1.467
752.539,1.481
752.803,1.479
753.066,1.458
753.330,1.445
753.594,1.440
753.857,1.439
754.121,1.445
754.385,1.455
754.649,1.465
754.913,1.466
755.177,1.469
755.441,1.462
755.705,1.449
755.969,1.432
756.233,1.437
756.497,1.444
756.761,1.443
757.025,1.432
757.289,1.424
757.553,1.425
757.818,1.434
758.082,1.446
758.346,1.453
758.610,1.457
758.875,1.453
759.139,1.449
759.404,1.442
759.668,1.435
759.932,1.435
760.197,1.439
760.462,1.444
760.726,1.446
760.991,1.446
761.255,1.446
761.520,1.444
761.785,1.433
762.049,1.417
762.314,1.403
762.579,1.405
762.844,1.419
763.109,1.429
763.374,1.426
763.639,1.420
763.903,1.413
764.168,1.408
764.433,1.407
764.699,1.419
764.964,1.431
765.229,1.431
765.494,1.418
765.759,1.407
766.024,1.403
766.290,1.412
766.555,1.426
766.820,1.436
767.086,1.436
767.351,1.431
767.616,1.424
767.882,1.416
768.147,1.408
768.413,1.400
768.678,1.390
768.944,1.388
769.209,1.397
769.475,1.414
769.741,1.430
770.006,1.445
770.272,1.456
770.538,1.455
770.804,1.443
771.070,1.432
771.335,1.431
771.601,1.443
771.867,1.450
772.133,1.446
772.399,1.431
772.665,1.410
772.931,1.405
773.197,1.416
773.464,1.431
773.730,1.442
773.996,1.445
774.262,1.450
774.528,1.443
774.795,1.440
775.061,1.442
775.327,1.443
775.594,1.433
775.860,1.414
776.126,1.392
776.393,1.376
776.659,1.370
776.926,1.368
777.193,1.370
777.459,1.373
777.726,1.374
777.992,1.376
778.259,1.373
778.526,1.380
778.793,1.386
779.059,1.396
779.326,1.406
779.593,1.411
779.860,1.418
780.127,1.416
780.394,1.411
780.661,1.407
780.928,1.400
781.195,1.393
781.462,1.383
781.729,1.383
781.996,1.381
782.263,1.382
782.530,1.390
782.797,1.399
783.064,1.394
783.332,1.381
783.599,1.366
783.866,1.368
784.134,1.371
784.401,1.375
784.668,1.376
784.936,1.374
785.203,1.368
785.470,1.357
785.738,1.354
786.005,1.354
786.273,1.353
786.541,1.347
786.808,1.348
787.076,1.354
787.343,1.364
787.611,1.374
787.879,1.387
788.146,1.389
788.414,1.391
788.682,1.385
788.950,1.387
789.217,1.391
789.485,1.403
789.753,1.411
790.021,1.399
790.289,1.373
790.557,1.347
790.825,1.335
791.093,1.343
791.361,1.367
791.629,1.393
791.897,1.407
792.165,1.404
792.433,1.391
792.701,1.369
792.969,1.350
793.237,1.338
793.505,1.346
793.773,1.358
794.042,1.357
794.310,1.348
794.578,1.339
794.846,1.336
795.115,1.334
795.383,1.337
795.651,1.354
795.920,1.368
796.188,1.376
796.456,1.384
796.725,1.390
796.993,1.399
797.261,1.399
797.530,1.395
797.798,1.382
798.067,1.380
798.335,1.388
798.604,1.390
798.872,1.373
799.141,1.354
799.409,1.348
799.678,1.355
799.946,1.368
800.215,1.373
800.483,1.369
800.752,1.363
801.020,1.354
801.289,1.349
801.558,1.349
801.826,1.354
802.095,1.356
802.363,1.356
802.632,1.357
802.901,1.365
803.169,1.368
803.438,1.364
803.707,1.351
803.976,1.336
804.244,1.334
804.513,1.337
804.782,1.335
805.050,1.331
805.319,1.335
805.588,1.353
805.857,1.368
806.125,1.374
806.394,1.365
806.663,1.346
806.931,1.330
807.200,1.324
807.469,1.328
807.738,1.332
808.006,1.334
808.275,1.345
808.544,1.364
808.813,1.384
809.082,1.384
809.350,1.373
809.619,1.361
809.888,1.350
810.157,1.343
810.425,1.336
810.694,1.336
810.963,1.342
811.232,1.341
811.500,1.334
811.769,1.321
812.038,1.322
812.306,1.335
812.575,1.352
812.844,1.364
813.113,1.368
813.381,1.360
813.650,1.356
813.919,1.364
814.187,1.377
814.456,1.385
814.725,1.384
814.993,1.376
815.262,1.370
815.531,1.365
815.799,1.366
816.068,1.356
816.336,1.343
816.605,1.338
816.873,1.343
817.142,1.355
817.411,1.366
817.679,1.373
817.948,1.386
818.216,1.406
818.485,1.447
818.753,1.476
819.021,1.453
819.290,1.396
819.558,1.347
819.827,1.346
820.095,1.360
820.363,1.368
820.632,1.368
820.900,1.367
821.168,1.370
821.437,1.377
821.705,1.382
821.973,1.385
822.241,1.384
822.509,1.385
822.777,1.375
823.046,1.368
823.314,1.366
823.582,1.370
823.850,1.374
824.118,1.376
824.386,1.372
824.654,1.354
824.922,1.335
825.190,1.324
825.457,1.335
825.725,1.351
825.993,1.355
826.261,1.348
826.529,1.342
826.796,1.341
827.064,1.337
827.332,1.335
827.599,1.346
827.867,1.369
828.134,1.378
828.402,1.364
828.669,1.344
828.937,1.336
829.204,1.353
829.471,1.379
829.739,1.395
830.006,1.395
830.273,1.381
830.540,1.360
830.807,1.339
831.075,1.333
831.342,1.345
831.609,1.357
831.876,1.366
832.142,1.371
832.409,1.375
832.676,1.369
832.943,1.353
833.210,1.341
833.476,1.337
833.743,1.346
834.010,1.352
834.276,1.343
834.543,1.330
834.809,1.328
835.076,1.336
835.342,1.343
835.608,1.355
835.874,1.366
836.141,1.367
836.407,1.357
836.673,1.345
836.939,1.342
837.205,1.337
837.471,1.339
837.737,1.341
838.002,1.345
838.268,1.346
838.534,1.349
838.799,1.351
839.065,1.358
839.330,1.360
839.596,1.361
839.861,1.363
840.127,1.370
840.392,1.376
840.657,1.378
840.922,1.384
841.187,1.387
841.452,1.385
841.717,1.382
841.982,1.373
842.247,1.361
842.511,1.347
842.776,1.344
843.041,1.348
843.305,1.343
843.570,1.337
843.834,1.333
844.098,1.334
844.362,1.338
844.627,1.335
844.891,1.335
845.155,1.336
845.419,1.346
845.682,1.357
845.946,1.366
846.210,1.370
846.474,1.367
846.737,1.367
847.001,1.362
847.264,1.352
847.527,1.343
847.790,1.338
848.054,1.339
848.317,1.330
848.580,1.327
848.843,1.329
849.105,1.347
849.368,1.368
849.631,1.382
849.893,1.385
850.156,1.390
850.418,1.390
850.680,1.371
850.943,1.351
851.205,1.349
851.467,1.355
851.729,1.352
851.991,1.345
852.252,1.349
852.514,1.360
852.776,1.370
853.037,1.381
853.298,1.380
853.560,1.366
853.821,1.343
854.082,1.324
854.343,1.328
854.604,1.353
854.865,1.387
855.126,1.409
855.386,1.417
855.647,1.411
855.907,1.397
856.168,1.378
856.428,1.363
856.688,1.354
856.948,1.338
857.208,1.324
857.468,1.320
857.727,1.331
857.987,1.341
858.247,1.351
858.506,1.365
858.765,1.368
859.024,1.355
859.284,1.338
859.543,1.326
859.801,1.324
860.060,1.326
860.319,1.342
860.577,1.358
860.836,1.367
861.094,1.370
861.352,1.369
861.611,1.361
861.869,1.343
862.127,1.334
862.384,1.337
862.642,1.342
862.900,1.357
863.157,1.367
863.414,1.365
863.672,1.345
863.929,1.320
864.186,1.314
864.443,1.322
864.699,1.334
864.956,1.339
865.212,1.330
865.469,1.326
865.725,1.333
865.981,1.348
866.237,1.358
866.493,1.358
866.749,1.346
867.005,1.335
867.260,1.323
867.516,1.319
867.771,1.313
868.026,1.317
868.282,1.334
868.536,1.346
868.791,1.345
869.046,1.330
869.301,1.323
869.555,1.329
869.809,1.346
870.064,1.355
870.318,1.363
870.572,1.368
870.826,1.354
871.079,1.338
871.333,1.322
871.586,1.325
871.840,1.326
872.093,1.328
872.346,1.339
872.599,1.360
872.852,1.382
873.105,1.392
873.357,1.384
873.610,1.366
873.862,1.362
874.114,1.368
874.366,1.376
874.618,1.366
874.870,1.341
875.121,1.319
875.373,1.313
875.624,1.323
875.876,1.329
876.127,1.328
876.378,1.321
876.629,1.316
876.879,1.319
877.130,1.328
877.381,1.329
877.631,1.322
877.881,1.317
878.131,1.328
878.381,1.351
878.631,1.376
878.881,1.387
879.130,1.383
879.380,1.370
879.629,1.359
879.878,1.347
880.127,1.340
880.376,1.341
880.625,1.353
880.873,1.367
881.122,1.377
881.370,1.377
881.618,1.366
881.866,1.351
882.114,1.336
882.362,1.333
882.610,1.341
882.857,1.353
883.105,1.356
883.352,1.345
883.599,1.333
883.846,1.320
884.093,1.316
884.340,1.324
884.586,1.339
884.833,1.352
885.079,1.353
885.325,1.345
885.571,1.340
885.817,1.336
886.063,1.342
886.309,1.347
886.554,1.359
886.800,1.370
887.045,1.376
887.290,1.365
887.535,1.345
887.780,1.336
888.025,1.345
888.270,1.369
888.514,1.389
888.758,1.393
889.003,1.383
889.247,1.357
889.491,1.353
889.735,1.357
889.978,1.372
890.222,1.368
890.465,1.360
890.709,1.351
890.952,1.341
891.195,1.331
891.438,1.324
891.681,1.318
891.923,1.319
892.166,1.323
892.408,1.328
892.651,1.323
892.893,1.313
893.135,1.309
893.377,1.312
893.619,1.319
893.861,1.330
894.102,1.342
894.344,1.363
894.585,1.385
894.826,1.397
895.067,1.385
895.308,1.364
895.549,1.342
895.790,1.330
896.031,1.320
896.271,1.326
896.512,1.343
896.752,1.359
896.992,1.360
897.232,1.348
897.472,1.339
897.712,1.348
897.952,1.366
898.191,1.372
898.431,1.365
898.670,1.364
898.910,1.373
899.149,1.390
899.388,1.400
899.627,1.399
899.866,1.386
900.105,1.363
900.343,1.348
900.582,1.344
900.820,1.354
901.059,1.376
901.297,1.390
901.535,1.379
901.773,1.350
902.011,1.322
902.249,1.307
902.487,1.304
902.725,1.313
902.963,1.329
903.200,1.333
903.438,1.330
903.675,1.333
903.912,1.343
904.150,1.357
904.387,1.362
904.624,1.351
904.861,1.334
905.098,1.321
905.334,1.323
905.571,1.321
905.808,1.324
906.045,1.332
906.281,1.345
906.518,1.352
906.754,1.358
906.990,1.361
907.227,1.358
907.463,1.342
907.699,1.333
907.935,1.335
908.171,1.346
908.407,1.347
908.643,1.346
908.879,1.347
909.115,1.358
909.350,1.364
909.586,1.362
909.822,1.359
910.057,1.370
910.293,1.398
910.528,1.420
910.764,1.419
910.999,1.410
911.235,1.395
911.470,1.394
911.706,1.383
911.941,1.374
912.176,1.356
912.412,1.342
912.647,1.341
912.882,1.354
913.117,1.364
913.352,1.361
913.588,1.349
913.823,1.342
914.058,1.343
914.293,1.346
914.528,1.338
914.763,1.326
914.999,1.318
915.234,1.318
915.469,1.325
915.704,1.326
915.939,1.323
916.174,1.316
916.409,1.319
916.645,1.337
916.880,1.357
917.115,1.367
917.350,1.361
917.586,1.358
917.821,1.360
918.056,1.370
918.292,1.377
918.527,1.375
918.763,1.363
918.998,1.350
919.234,1.355
919.469,1.372
919.705,1.382
919.940,1.376
920.176,1.368
920.412,1.373
920.648,1.374
920.884,1.368
921.120,1.355
921.356,1.347
921.592,1.341
921.828,1.338
922.065,1.342
922.301,1.357
922.537,1.376
922.774,1.383
923.011,1.371
923.247,1.350
923.484,1.346
923.721,1.356
923.958,1.371
924.195,1.373
924.433,1.365
924.670,1.345
924.908,1.323
925.145,1.318
925.383,1.334
925.621,1.355
925.859,1.369
926.097,1.377
926.335,1.379
926.574,1.378
926.813,1.376
927.051,1.374
927.290,1.373
927.529,1.385
927.769,1.405
928.008,1.413
928.248,1.386
928.487,1.360
928.727,1.349
928.967,1.368
929.208,1.378
929.448,1.377
929.689,1.365
929.930,1.348
930.171,1.332
930.413,1.328
930.654,1.331
930.896,1.329
931.138,1.320
931.380,1.313
931.623,1.322
931.865,1.339
932.108,1.356
932.352,1.365
932.595,1.368
932.839,1.372
933.083,1.367
933.327,1.356
933.571,1.337
933.816,1.337
934.061,1.346
934.307,1.351
934.552,1.338
934.798,1.329
935.045,1.330
935.291,1.340
935.538,1.347
935.785,1.356
936.033,1.368
936.281,1.377
936.529,1.382
936.777,1.379
937.026,1.367
937.275,1.353
937.525,1.338
937.775,1.327
938.025,1.322
938.276,1.324
938.527,1.327
938.778,1.326
939.030,1.320
939.282,1.319
939.535,1.325
939.788,1.336
940.041,1.334
940.295,1.327
940.550,1.328
940.804,1.343
941.059,1.357
941.315,1.349
941.571,1.333
941.828,1.319
942.085,1.319
942.342,1.325
942.600,1.327
942.858,1.326
943.117,1.320
943.377,1.316
943.636,1.311
943.897,1.309
944.158,1.315
944.419,1.326
944.681,1.337
944.944,1.346
945.207,1.354
945.470,1.359
945.734,1.363
945.999,1.374
946.264,1.389
946.530,1.396
946.797,1.389
947.064,1.379
947.331,1.369
947.600,1.358
947.869,1.347
948.138,1.340
948.408,1.336
948.679,1.336
948.950,1.339
949.222,1.338
949.495,1.335
949.768,1.338
950.043,1.354
