Wavelength (nm),Intensity W20.2,,C:/Users/Brend/Desktop/LED Spectras v2/Spectrometer Data (White).sp,,,W20.2,
379.792,2.286,,2018-06-15 13:03:46,,Integration Time,165 ms,
380.000,2.283,,Analyze Light,,Number of Scans to Average,25,
380.209,2.281,,,,Smoothing,1,
380.418,2.292
380.627,2.312
380.837,2.334
381.048,2.348
381.259,2.346
381.471,2.343
381.683,2.348
381.896,2.364
382.110,2.372
382.324,2.389
382.538,2.411
382.753,2.434
382.969,2.430
383.185,2.415
383.402,2.402
383.619,2.408
383.837,2.427
384.055,2.458
384.274,2.484
384.493,2.500
384.712,2.506
384.932,2.512
385.153,2.519
385.374,2.530
385.596,2.539
385.818,2.560
386.040,2.585
386.263,2.615
386.487,2.627
386.710,2.628
386.935,2.611
387.159,2.604
387.385,2.599
387.610,2.602
387.836,2.607
388.063,2.620
388.289,2.633
388.517,2.646
388.744,2.647
388.972,2.660
389.201,2.668
389.430,2.682
389.659,2.694
389.889,2.715
390.119,2.737
390.349,2.754
390.580,2.764
390.811,2.769
391.042,2.770
391.274,2.778
391.507,2.787
391.739,2.794
391.972,2.792
392.205,2.800
392.439,2.816
392.673,2.837
392.907,2.849
393.142,2.867
393.377,2.881
393.612,2.904
393.848,2.918
394.084,2.933
394.320,2.938
394.557,2.947
394.794,2.955
395.031,2.970
395.269,2.986
395.507,3.002
395.745,3.006
395.983,3.010
396.222,3.018
396.461,3.046
396.700,3.078
396.940,3.105
397.180,3.116
397.420,3.110
397.660,3.100
397.901,3.094
398.142,3.101
398.383,3.108
398.625,3.111
398.866,3.123
399.108,3.149
399.351,3.191
399.593,3.206
399.836,3.212
400.079,3.198
400.322,3.199
400.566,3.195
400.809,3.198
401.053,3.203
401.298,3.220
401.542,3.236
401.787,3.255
402.031,3.264
402.277,3.276
402.522,3.280
402.767,3.293
403.013,3.297
403.259,3.309
403.505,3.314
403.752,3.326
403.998,3.334
404.245,3.359
404.492,3.384
404.739,3.404
404.986,3.411
405.234,3.423
405.482,3.434
405.730,3.441
405.978,3.442
406.226,3.439
406.475,3.437
406.723,3.441
406.972,3.459
407.221,3.481
407.470,3.493
407.720,3.506
407.969,3.505
408.219,3.521
408.469,3.536
408.719,3.559
408.969,3.564
409.219,3.572
409.470,3.584
409.720,3.608
409.971,3.625
410.222,3.646
410.473,3.651
410.724,3.659
410.976,3.667
411.227,3.692
411.479,3.708
411.731,3.722
411.983,3.722
412.235,3.734
412.487,3.741
412.740,3.752
412.992,3.756
413.245,3.766
413.497,3.770
413.750,3.776
414.003,3.775
414.257,3.782
414.510,3.788
414.763,3.808
415.017,3.824
415.270,3.839
415.524,3.840
415.778,3.843
416.032,3.845
416.286,3.864
416.540,3.876
416.794,3.895
417.049,3.900
417.303,3.915
417.558,3.924
417.812,3.934
418.067,3.940
418.322,3.951
418.577,3.958
418.832,3.966
419.088,3.960
419.343,3.971
419.598,3.970
419.854,3.989
420.109,3.998
420.365,4.027
420.621,4.046
420.876,4.070
421.132,4.082
421.388,4.095
421.645,4.105
421.901,4.128
422.157,4.150
422.413,4.177
422.670,4.195
422.926,4.220
423.183,4.236
423.439,4.270
423.696,4.302
423.953,4.358
424.210,4.406
424.467,4.449
424.724,4.467
424.981,4.486
425.238,4.512
425.495,4.573
425.753,4.637
426.010,4.710
426.267,4.770
426.525,4.843
426.782,4.909
427.040,4.984
427.298,5.063
427.555,5.163
427.813,5.257
428.071,5.353
428.329,5.434
428.587,5.522
428.845,5.612
429.103,5.715
429.361,5.822
429.619,5.937
429.878,6.054
430.136,6.192
430.394,6.336
430.653,6.504
430.911,6.667
431.170,6.839
431.428,6.987
431.687,7.140
431.946,7.294
432.204,7.472
432.463,7.666
432.722,7.868
432.981,8.074
433.240,8.298
433.499,8.530
433.758,8.780
434.017,9.015
434.276,9.264
434.535,9.512
434.794,9.780
435.053,10.051
435.312,10.341
435.572,10.642
435.831,10.965
436.090,11.303
436.350,11.652
436.609,12.006
436.869,12.372
437.128,12.739
437.388,13.119
437.647,13.506
437.907,13.927
438.166,14.351
438.426,14.784
438.686,15.220
438.946,15.683
439.205,16.164
439.465,16.669
439.725,17.192
439.985,17.733
440.245,18.275
440.505,18.827
440.765,19.381
441.025,19.964
441.285,20.562
441.545,21.189
441.805,21.826
442.065,22.474
442.325,23.140
442.585,23.843
442.846,24.589
443.106,25.376
443.366,26.192
443.626,27.031
443.887,27.911
444.147,28.829
444.407,29.785
444.668,30.774
444.928,31.814
445.189,32.917
445.449,34.072
445.710,35.279
445.970,36.544
446.231,37.882
446.491,39.285
446.752,40.753
447.012,42.277
447.273,43.869
447.534,45.511
447.794,47.206
448.055,48.953
448.316,50.781
448.577,52.708
448.837,54.722
449.098,56.793
449.359,58.883
449.620,60.970
449.881,63.062
450.142,65.192
450.403,67.383
450.664,69.624
450.924,71.879
451.185,74.103
451.446,76.310
451.707,78.471
451.969,80.581
452.230,82.538
452.491,84.251
452.752,85.663
453.013,86.819
453.274,87.787
453.535,88.635
453.796,89.374
454.058,90.024
454.319,90.578
454.580,91.029
454.841,91.380
455.103,91.632
455.364,91.810
455.625,91.930
455.887,91.997
456.148,92.017
456.409,91.979
456.671,91.886
456.932,91.734
457.194,91.522
457.455,91.253
457.716,90.914
457.978,90.520
458.239,90.062
458.501,89.549
458.763,88.970
459.024,88.321
459.286,87.584
459.547,86.719
459.809,85.699
460.071,84.500
460.332,83.127
460.594,81.622
460.856,80.059
461.117,78.484
461.379,76.939
461.641,75.438
461.903,73.974
462.164,72.525
462.426,71.087
462.688,69.689
462.950,68.346
463.212,67.070
463.474,65.852
463.736,64.682
463.998,63.577
464.260,62.551
464.522,61.611
464.784,60.723
465.046,59.876
465.308,59.093
465.570,58.358
465.832,57.664
466.094,56.975
466.356,56.313
466.618,55.674
466.880,55.031
467.142,54.412
467.405,53.819
467.667,53.272
467.929,52.721
468.191,52.168
468.454,51.602
468.716,51.045
468.978,50.446
469.241,49.827
469.503,49.199
469.765,48.596
470.028,48.007
470.290,47.389
470.552,46.759
470.815,46.122
471.077,45.479
471.340,44.833
471.602,44.179
471.865,43.537
472.128,42.884
472.390,42.232
472.653,41.587
472.915,40.937
473.178,40.276
473.441,39.584
473.703,38.886
473.966,38.175
474.229,37.464
474.492,36.760
474.755,36.058
475.017,35.396
475.280,34.745
475.543,34.123
475.806,33.476
476.069,32.836
476.332,32.208
476.595,31.608
476.858,31.030
477.121,30.462
477.384,29.920
477.647,29.415
477.910,28.945
478.173,28.496
478.436,28.052
478.699,27.632
478.962,27.235
479.226,26.864
479.489,26.492
479.752,26.130
480.015,25.776
480.279,25.441
480.542,25.111
480.805,24.799
481.069,24.495
481.332,24.218
481.595,23.957
481.859,23.734
482.122,23.502
482.386,23.275
482.649,23.037
482.913,22.826
483.177,22.616
483.440,22.422
483.704,22.240
483.967,22.087
484.231,21.932
484.495,21.788
484.759,21.633
485.022,21.478
485.286,21.316
485.550,21.156
485.814,20.984
486.078,20.822
486.342,20.681
486.606,20.579
486.869,20.482
487.133,20.379
487.397,20.273
487.662,20.174
487.926,20.065
488.190,19.956
488.454,19.840
488.718,19.746
488.982,19.644
489.246,19.553
489.511,19.453
489.775,19.361
490.039,19.270
490.304,19.183
490.568,19.099
490.832,19.038
491.097,18.999
491.361,18.973
491.626,18.931
491.890,18.883
492.155,18.835
492.419,18.812
492.684,18.790
492.949,18.782
493.213,18.778
493.478,18.802
493.743,18.817
494.008,18.819
494.272,18.820
494.537,18.856
494.802,18.905
495.067,18.968
495.332,19.024
495.597,19.092
495.862,19.146
496.127,19.209
496.392,19.272
496.657,19.352
496.922,19.440
497.187,19.546
497.452,19.664
497.718,19.805
497.983,19.938
498.248,20.063
498.513,20.166
498.779,20.291
499.044,20.421
499.310,20.540
499.575,20.624
499.841,20.720
500.106,20.836
500.372,20.974
500.637,21.115
500.903,21.277
501.168,21.436
501.434,21.584
501.700,21.706
501.966,21.848
502.231,21.992
502.497,22.137
502.763,22.258
503.029,22.379
503.295,22.509
503.561,22.657
503.827,22.814
504.093,22.979
504.359,23.129
504.625,23.290
504.891,23.442
505.157,23.615
505.423,23.762
505.690,23.906
505.956,24.044
506.222,24.204
506.489,24.382
506.755,24.560
507.021,24.715
507.288,24.868
507.554,25.010
507.821,25.168
508.087,25.315
508.354,25.476
508.621,25.631
508.887,25.783
509.154,25.928
509.421,26.075
509.687,26.209
509.954,26.346
510.221,26.484
510.488,26.665
510.755,26.839
511.022,27.017
511.289,27.162
511.556,27.305
511.823,27.440
512.090,27.583
512.357,27.713
512.624,27.838
512.891,27.959
513.159,28.104
513.426,28.249
513.693,28.398
513.960,28.525
514.228,28.653
514.495,28.773
514.763,28.893
515.030,29.016
515.298,29.136
515.565,29.267
515.833,29.396
516.100,29.508
516.368,29.614
516.636,29.702
516.904,29.807
517.171,29.905
517.439,30.020
517.707,30.137
517.975,30.262
518.243,30.388
518.511,30.503
518.779,30.588
519.047,30.681
519.315,30.781
519.583,30.885
519.851,30.964
520.119,31.042
520.387,31.133
520.656,31.240
520.924,31.351
521.192,31.461
521.461,31.549
521.729,31.625
521.997,31.696
522.266,31.764
522.534,31.834
522.803,31.910
523.071,32.006
523.340,32.106
523.609,32.195
523.877,32.286
524.146,32.367
524.415,32.447
524.684,32.529
524.952,32.615
525.221,32.711
525.490,32.818
525.759,32.913
526.028,32.989
526.297,33.017
526.566,33.045
526.835,33.083
527.104,33.152
527.373,33.224
527.642,33.292
527.912,33.334
528.181,33.376
528.450,33.428
528.719,33.499
528.989,33.573
529.258,33.640
529.528,33.687
529.797,33.715
530.067,33.737
530.336,33.759
530.606,33.791
530.875,33.807
531.145,33.826
531.414,33.850
531.684,33.890
531.954,33.919
532.224,33.938
532.493,33.950
532.763,33.984
533.033,34.030
533.303,34.078
533.573,34.125
533.843,34.145
534.113,34.164
534.383,34.172
534.653,34.207
534.923,34.260
535.193,34.313
535.463,34.344
535.733,34.354
536.004,34.361
536.274,34.381
536.544,34.393
536.814,34.412
537.085,34.424
537.355,34.468
537.626,34.519
537.896,34.577
538.166,34.608
538.437,34.637
538.707,34.669
538.978,34.722
539.249,34.790
539.519,34.863
539.790,34.917
540.061,34.958
540.331,34.990
540.602,35.022
540.873,35.030
541.144,35.035
541.414,35.037
541.685,35.064
541.956,35.088
542.227,35.118
542.498,35.133
542.769,35.164
543.040,35.212
543.311,35.286
543.582,35.362
543.853,35.415
544.124,35.443
544.396,35.452
544.667,35.462
544.938,35.471
545.209,35.445
545.480,35.422
545.752,35.399
546.023,35.402
546.294,35.389
546.566,35.378
546.837,35.377
547.109,35.385
547.380,35.391
547.652,35.392
547.923,35.400
548.195,35.424
548.466,35.443
548.738,35.445
549.009,35.412
549.281,35.374
549.553,35.338
549.824,35.308
550.096,35.295
550.368,35.299
550.640,35.311
550.911,35.321
551.183,35.334
551.455,35.364
551.727,35.365
551.999,35.323
552.271,35.267
552.543,35.237
552.815,35.235
553.087,35.247
553.359,35.244
553.631,35.224
553.903,35.186
554.175,35.149
554.447,35.107
554.719,35.068
554.991,35.022
555.263,34.984
555.535,34.945
555.808,34.927
556.080,34.916
556.352,34.904
556.624,34.868
556.897,34.818
557.169,34.752
557.441,34.680
557.714,34.605
557.986,34.557
558.258,34.521
558.531,34.525
558.803,34.531
559.076,34.531
559.348,34.490
559.621,34.426
559.893,34.368
560.166,34.318
560.438,34.268
560.711,34.228
560.983,34.207
561.256,34.215
561.528,34.210
561.801,34.196
562.074,34.160
562.346,34.124
562.619,34.075
562.892,34.013
563.164,33.945
563.437,33.906
563.710,33.879
563.983,33.850
564.255,33.805
564.528,33.791
564.801,33.802
565.074,33.825
565.346,33.814
565.619,33.786
565.892,33.738
566.165,33.679
566.438,33.596
566.711,33.512
566.984,33.432
567.257,33.371
567.529,33.332
567.802,33.321
568.075,33.308
568.348,33.279
568.621,33.231
568.894,33.171
569.167,33.103
569.440,33.032
569.713,32.942
569.986,32.847
570.259,32.734
570.532,32.643
570.805,32.554
571.078,32.487
571.351,32.428
571.625,32.392
571.898,32.342
572.171,32.274
572.444,32.178
572.717,32.085
572.990,31.998
573.263,31.896
573.536,31.768
573.809,31.639
574.083,31.539
574.356,31.477
574.629,31.436
574.902,31.392
575.175,31.329
575.448,31.240
575.721,31.140
575.995,31.047
576.268,30.967
576.541,30.913
576.814,30.870
577.087,30.831
577.361,30.792
577.634,30.754
577.907,30.690
578.180,30.600
578.453,30.492
578.727,30.404
579.000,30.316
579.273,30.251
579.546,30.196
579.820,30.168
580.093,30.139
580.366,30.103
580.639,30.049
580.913,29.986
581.186,29.913
581.459,29.836
581.732,29.735
582.005,29.636
582.279,29.530
582.552,29.429
582.825,29.321
583.098,29.222
583.372,29.149
583.645,29.100
583.918,29.074
584.191,29.052
584.464,29.025
584.738,28.979
585.011,28.909
585.284,28.824
585.557,28.716
585.831,28.612
586.104,28.520
586.377,28.463
586.650,28.411
586.923,28.372
587.196,28.342
587.470,28.317
587.743,28.279
588.016,28.216
588.289,28.147
588.562,28.068
588.835,27.972
589.109,27.859
589.382,27.750
589.655,27.660
589.928,27.593
590.201,27.546
590.474,27.519
590.747,27.495
591.020,27.457
591.293,27.396
591.567,27.314
591.840,27.221
592.113,27.111
592.386,26.998
592.659,26.877
592.932,26.770
593.205,26.678
593.478,26.599
593.751,26.518
594.024,26.450
594.297,26.372
594.570,26.288
594.843,26.183
595.116,26.086
595.389,25.981
595.662,25.882
595.934,25.784
596.207,25.707
596.480,25.623
596.753,25.543
597.026,25.462
597.299,25.404
597.572,25.347
597.844,25.271
598.117,25.153
598.390,25.019
598.663,24.883
598.936,24.763
599.208,24.642
599.481,24.535
599.754,24.439
600.026,24.345
600.299,24.256
600.572,24.164
600.844,24.069
601.117,23.962
601.390,23.841
601.662,23.722
601.935,23.589
602.207,23.456
602.480,23.313
602.752,23.179
603.025,23.045
603.297,22.926
603.570,22.829
603.842,22.759
604.115,22.681
604.387,22.580
604.660,22.451
604.932,22.323
605.204,22.204
605.477,22.095
605.749,21.980
606.021,21.848
606.294,21.710
606.566,21.581
606.838,21.471
607.110,21.378
607.383,21.296
607.655,21.226
607.927,21.158
608.199,21.089
608.471,20.998
608.743,20.889
609.015,20.766
609.287,20.640
609.559,20.503
609.831,20.364
610.103,20.227
610.375,20.102
610.647,19.975
610.919,19.841
611.191,19.709
611.463,19.594
611.735,19.482
612.007,19.362
612.278,19.240
612.550,19.124
612.822,19.014
613.094,18.901
613.365,18.762
613.637,18.626
613.909,18.481
614.180,18.361
614.452,18.232
614.723,18.119
614.995,18.010
615.266,17.922
615.538,17.835
615.809,17.750
616.081,17.642
616.352,17.531
616.623,17.408
616.895,17.289
617.166,17.153
617.437,17.015
617.709,16.880
617.980,16.771
618.251,16.681
618.522,16.611
618.793,16.541
619.065,16.485
619.336,16.400
619.607,16.302
619.878,16.185
620.149,16.087
620.420,15.978
620.691,15.868
620.962,15.754
621.232,15.655
621.503,15.548
621.774,15.459
622.045,15.378
622.316,15.323
622.586,15.257
622.857,15.196
623.128,15.110
623.398,15.027
623.669,14.926
623.940,14.825
624.210,14.713
624.481,14.621
624.751,14.533
625.021,14.459
625.292,14.376
625.562,14.315
625.833,14.253
626.103,14.198
626.373,14.124
626.643,14.044
626.914,13.952
627.184,13.868
627.454,13.789
627.724,13.714
627.994,13.628
628.264,13.539
628.534,13.449
628.804,13.370
629.074,13.303
629.344,13.239
629.614,13.185
629.884,13.136
630.154,13.092
630.424,13.038
630.693,12.973
630.963,12.900
631.233,12.820
631.502,12.745
631.772,12.674
632.041,12.600
632.311,12.503
632.581,12.400
632.850,12.310
633.119,12.223
633.389,12.142
633.658,12.074
633.928,12.032
634.197,12.004
634.466,11.974
634.735,11.930
635.004,11.868
635.274,11.794
635.543,11.715
635.812,11.646
636.081,11.588
636.350,11.538
636.619,11.480
636.888,11.415
637.157,11.347
637.426,11.295
637.694,11.245
637.963,11.194
638.232,11.140
638.501,11.089
638.769,11.039
639.038,10.979
639.307,10.913
639.575,10.844
639.844,10.762
640.112,10.679
640.381,10.595
640.649,10.527
640.917,10.475
641.186,10.429
641.454,10.393
641.722,10.350
641.991,10.299
642.259,10.236
642.527,10.170
642.795,10.111
643.063,10.043
643.331,9.982
643.599,9.927
643.867,9.900
644.135,9.873
644.403,9.843
644.671,9.792
644.939,9.740
645.206,9.679
645.474,9.629
645.742,9.570
646.009,9.506
646.277,9.446
646.545,9.386
646.812,9.344
647.080,9.301
647.347,9.250
647.615,9.185
647.882,9.109
648.149,9.036
648.417,8.962
648.684,8.899
648.951,8.848
649.219,8.807
649.486,8.760
649.753,8.709
650.020,8.646
650.287,8.581
650.554,8.506
650.821,8.432
651.088,8.358
651.355,8.313
651.622,8.268
651.889,8.230
652.155,8.172
652.422,8.122
652.689,8.077
652.956,8.033
653.222,7.991
653.489,7.952
653.755,7.901
654.022,7.825
654.288,7.728
654.555,7.650
654.821,7.594
655.088,7.549
655.354,7.500
655.620,7.450
655.887,7.396
656.153,7.344
656.419,7.287
656.685,7.235
656.951,7.183
657.217,7.135
657.483,7.086
657.749,7.034
658.015,6.985
658.281,6.933
658.547,6.875
658.813,6.814
659.079,6.754
659.345,6.696
659.610,6.633
659.876,6.576
660.142,6.527
660.407,6.486
660.673,6.444
660.939,6.406
661.204,6.365
661.470,6.329
661.735,6.290
662.000,6.257
662.266,6.213
662.531,6.158
662.796,6.099
663.062,6.043
663.327,5.986
663.592,5.939
663.857,5.897
664.122,5.866
664.388,5.828
664.653,5.793
664.918,5.760
665.183,5.728
665.448,5.698
665.712,5.667
665.977,5.636
666.242,5.596
666.507,5.528
666.772,5.465
667.037,5.407
667.301,5.376
667.566,5.334
667.831,5.296
668.095,5.252
668.360,5.217
668.624,5.169
668.889,5.138
669.153,5.105
669.418,5.087
669.682,5.063
669.946,5.045
670.211,5.032
670.475,5.015
670.739,4.991
671.004,4.962
671.268,4.945
671.532,4.937
671.796,4.884
672.060,4.816
672.324,4.741
672.588,4.707
672.852,4.683
673.116,4.690
673.380,4.701
673.644,4.655
673.908,4.577
674.172,4.494
674.436,4.463
674.700,4.435
674.963,4.407
675.227,4.379
675.491,4.336
675.754,4.293
676.018,4.249
676.282,4.224
676.545,4.194
676.809,4.156
677.072,4.113
677.336,4.077
677.599,4.052
677.863,4.028
678.126,4.006
678.389,3.997
678.653,3.989
678.916,3.973
679.179,3.930
679.442,3.891
679.706,3.864
679.969,3.847
680.232,3.830
680.495,3.816
680.758,3.803
681.021,3.779
681.284,3.738
681.547,3.690
681.810,3.664
682.073,3.659
682.336,3.656
682.599,3.638
682.862,3.610
683.125,3.590
683.388,3.579
683.651,3.567
683.913,3.546
684.176,3.507
684.439,3.464
684.702,3.423
684.964,3.396
685.227,3.378
685.490,3.368
685.752,3.365
686.015,3.351
686.277,3.326
686.540,3.289
686.802,3.250
687.065,3.225
687.327,3.212
687.590,3.207
687.852,3.187
688.115,3.151
688.377,3.120
688.639,3.104
688.902,3.099
689.164,3.087
689.426,3.075
689.689,3.059
689.951,3.038
690.213,3.010
690.475,2.987
690.737,2.967
691.000,2.946
691.262,2.921
691.524,2.906
691.786,2.900
692.048,2.897
692.310,2.882
692.572,2.853
692.834,2.821
693.096,2.801
693.358,2.796
693.620,2.799
693.882,2.799
694.144,2.785
694.406,2.759
694.668,2.729
694.930,2.704
695.192,2.677
695.453,2.656
695.715,2.640
695.977,2.628
696.239,2.605
696.501,2.586
696.762,2.579
697.024,2.578
697.286,2.564
697.548,2.542
697.809,2.525
698.071,2.511
698.333,2.498
698.594,2.480
698.856,2.473
699.118,2.466
699.379,2.458
699.641,2.450
699.902,2.446
700.164,2.437
700.426,2.423
700.687,2.402
700.949,2.390
701.210,2.379
701.472,2.365
701.733,2.344
701.995,2.327
702.256,2.315
702.518,2.302
702.779,2.285
703.041,2.286
703.302,2.295
703.563,2.290
703.825,2.271
704.086,2.249
704.348,2.235
704.609,2.225
704.871,2.222
705.132,2.228
705.393,2.222
705.655,2.212
705.916,2.202
706.177,2.196
706.439,2.191
706.700,2.182
706.961,2.172
707.223,2.162
707.484,2.139
707.745,2.114
708.007,2.085
708.268,2.059
708.529,2.031
708.790,2.001
709.052,1.980
709.313,1.972
709.574,1.971
709.835,1.970
710.097,1.958
710.358,1.934
710.619,1.907
710.881,1.882
711.142,1.869
711.403,1.856
711.664,1.848
711.926,1.833
712.187,1.826
712.448,1.820
712.709,1.821
712.970,1.821
713.232,1.819
713.493,1.815
713.754,1.809
714.015,1.807
714.277,1.810
714.538,1.811
714.799,1.817
715.060,1.815
715.322,1.808
715.583,1.789
715.844,1.767
716.105,1.749
716.367,1.738
716.628,1.737
716.889,1.736
717.150,1.727
717.411,1.708
717.673,1.692
717.934,1.685
718.195,1.685
718.457,1.677
718.718,1.662
718.979,1.649
719.240,1.648
719.502,1.656
719.763,1.662
720.024,1.663
720.286,1.657
720.547,1.644
720.808,1.632
721.069,1.626
721.331,1.628
721.592,1.636
721.853,1.640
722.115,1.640
722.376,1.636
722.638,1.626
722.899,1.618
723.160,1.604
723.422,1.589
723.683,1.577
723.944,1.575
724.206,1.576
724.467,1.574
724.729,1.569
724.990,1.574
725.252,1.579
725.513,1.569
725.775,1.546
726.036,1.530
726.298,1.528
726.559,1.538
726.821,1.538
727.082,1.538
727.344,1.532
727.605,1.531
727.867,1.525
728.128,1.525
728.390,1.526
728.652,1.540
728.913,1.558
729.175,1.570
729.436,1.570
729.698,1.566
729.960,1.560
730.221,1.549
730.483,1.528
730.745,1.519
731.007,1.518
731.268,1.521
731.530,1.522
731.792,1.523
732.054,1.530
732.315,1.534
732.577,1.537
732.839,1.528
733.101,1.515
733.363,1.503
733.625,1.500
733.887,1.502
734.149,1.499
734.411,1.502
734.673,1.507
734.935,1.511
735.197,1.509
735.459,1.514
735.721,1.519
735.983,1.514
736.245,1.496
736.507,1.493
736.769,1.502
737.031,1.510
737.293,1.502
737.555,1.487
737.818,1.478
738.080,1.473
738.342,1.473
738.604,1.473
738.867,1.477
739.129,1.475
739.391,1.473
739.654,1.472
739.916,1.473
740.178,1.475
740.441,1.481
740.703,1.486
740.966,1.487
741.228,1.482
741.491,1.476
741.753,1.478
742.016,1.479
742.278,1.484
742.541,1.485
742.804,1.490
743.066,1.498
743.329,1.506
743.592,1.501
743.854,1.498
744.117,1.499
744.380,1.500
744.643,1.492
744.905,1.479
745.168,1.475
745.431,1.471
745.694,1.466
745.957,1.463
746.220,1.462
746.483,1.463
746.746,1.462
747.009,1.471
747.272,1.494
747.535,1.515
747.798,1.521
748.061,1.508
748.324,1.485
748.588,1.470
748.851,1.467
749.114,1.471
749.377,1.480
749.641,1.481
749.904,1.485
750.167,1.491
750.431,1.497
750.694,1.506
750.958,1.504
751.221,1.491
751.485,1.465
751.748,1.448
752.012,1.451
752.275,1.475
752.539,1.490
752.803,1.490
753.066,1.476
753.330,1.468
753.594,1.463
753.857,1.458
754.121,1.459
754.385,1.466
754.649,1.474
754.913,1.479
755.177,1.485
755.441,1.482
755.705,1.467
755.969,1.448
756.233,1.448
756.497,1.459
756.761,1.469
757.025,1.467
757.289,1.461
757.553,1.454
757.818,1.456
758.082,1.462
758.346,1.465
758.610,1.464
758.875,1.457
759.139,1.451
759.404,1.443
759.668,1.440
759.932,1.446
760.197,1.457
760.462,1.464
760.726,1.462
760.991,1.459
761.255,1.457
761.520,1.452
761.785,1.440
762.049,1.423
762.314,1.413
762.579,1.417
762.844,1.433
763.109,1.443
763.374,1.444
763.639,1.443
763.903,1.439
764.168,1.432
764.433,1.427
764.699,1.436
764.964,1.444
765.229,1.440
765.494,1.427
765.759,1.418
766.024,1.414
766.290,1.418
766.555,1.426
766.820,1.436
767.086,1.444
767.351,1.445
767.616,1.442
767.882,1.431
768.147,1.423
768.413,1.416
768.678,1.414
768.944,1.416
769.209,1.422
769.475,1.432
769.741,1.442
770.006,1.450
770.272,1.451
770.538,1.445
770.804,1.434
771.070,1.429
771.335,1.436
771.601,1.451
771.867,1.453
772.133,1.449
772.399,1.439
772.665,1.428
772.931,1.424
773.197,1.429
773.464,1.441
773.730,1.451
773.996,1.453
774.262,1.453
774.528,1.448
774.795,1.447
775.061,1.452
775.327,1.451
775.594,1.443
775.860,1.428
776.126,1.412
776.393,1.401
776.659,1.394
776.926,1.390
777.193,1.391
777.459,1.392
777.726,1.393
777.992,1.391
778.259,1.385
778.526,1.388
778.793,1.393
779.059,1.405
779.326,1.415
779.593,1.423
779.860,1.428
780.127,1.426
780.394,1.423
780.661,1.421
780.928,1.420
781.195,1.418
781.462,1.411
781.729,1.410
781.996,1.411
782.263,1.413
782.530,1.418
782.797,1.419
783.064,1.413
783.332,1.402
783.599,1.394
783.866,1.393
784.134,1.392
784.401,1.391
784.668,1.388
784.936,1.385
785.203,1.381
785.470,1.375
785.738,1.372
786.005,1.373
786.273,1.370
786.541,1.368
786.808,1.372
787.076,1.378
787.343,1.385
787.611,1.393
787.879,1.408
788.146,1.413
788.414,1.415
788.682,1.404
788.950,1.398
789.217,1.393
789.485,1.402
789.753,1.410
790.021,1.404
790.289,1.385
790.557,1.366
790.825,1.358
791.093,1.365
791.361,1.381
791.629,1.397
791.897,1.405
792.165,1.402
792.433,1.393
792.701,1.374
792.969,1.358
793.237,1.349
793.505,1.357
793.773,1.368
794.042,1.367
794.310,1.359
794.578,1.353
794.846,1.357
795.115,1.360
795.383,1.364
795.651,1.376
795.920,1.385
796.188,1.387
796.456,1.387
796.725,1.389
796.993,1.399
797.261,1.404
797.530,1.402
797.798,1.392
798.067,1.391
798.335,1.397
798.604,1.395
798.872,1.382
799.141,1.369
799.409,1.365
799.678,1.367
799.946,1.371
800.215,1.373
800.483,1.368
800.752,1.366
801.020,1.363
801.289,1.362
801.558,1.361
801.826,1.363
802.095,1.363
802.363,1.366
802.632,1.369
802.901,1.378
803.169,1.382
803.438,1.378
803.707,1.368
803.976,1.357
804.244,1.357
804.513,1.360
804.782,1.357
805.050,1.353
805.319,1.356
805.588,1.371
805.857,1.385
806.125,1.389
806.394,1.380
806.663,1.364
806.931,1.349
807.200,1.342
807.469,1.345
807.738,1.347
808.006,1.349
808.275,1.357
808.544,1.372
808.813,1.383
809.082,1.381
809.350,1.372
809.619,1.368
809.888,1.367
810.157,1.364
810.425,1.359
810.694,1.357
810.963,1.359
811.232,1.354
811.500,1.347
811.769,1.339
812.038,1.340
812.306,1.349
812.575,1.363
812.844,1.373
813.113,1.378
813.381,1.372
813.650,1.369
813.919,1.373
814.187,1.382
814.456,1.389
814.725,1.392
814.993,1.386
815.262,1.379
815.531,1.371
815.799,1.371
816.068,1.365
816.336,1.356
816.605,1.350
816.873,1.353
817.142,1.363
817.411,1.372
817.679,1.378
817.948,1.388
818.216,1.406
818.485,1.443
818.753,1.468
819.021,1.450
819.290,1.400
819.558,1.362
819.827,1.363
820.095,1.376
820.363,1.381
820.632,1.376
820.900,1.372
821.168,1.374
821.437,1.382
821.705,1.387
821.973,1.389
822.241,1.388
822.509,1.387
822.777,1.380
823.046,1.373
823.314,1.375
823.582,1.382
823.850,1.387
824.118,1.388
824.386,1.386
824.654,1.371
824.922,1.352
825.190,1.336
825.457,1.341
825.725,1.351
825.993,1.353
826.261,1.350
826.529,1.349
826.796,1.350
827.064,1.348
827.332,1.346
827.599,1.355
827.867,1.374
828.134,1.383
828.402,1.376
828.669,1.360
828.937,1.354
829.204,1.368
829.471,1.390
829.739,1.402
830.006,1.396
830.273,1.377
830.540,1.358
830.807,1.342
831.075,1.342
831.342,1.357
831.609,1.369
831.876,1.376
832.142,1.377
832.409,1.380
832.676,1.375
832.943,1.361
833.210,1.349
833.476,1.346
833.743,1.351
834.010,1.356
834.276,1.350
834.543,1.340
834.809,1.339
835.076,1.344
835.342,1.347
835.608,1.354
835.874,1.364
836.141,1.366
836.407,1.361
836.673,1.353
836.939,1.351
837.205,1.349
837.471,1.350
837.737,1.352
838.002,1.352
838.268,1.353
838.534,1.358
838.799,1.360
839.065,1.364
839.330,1.363
839.596,1.366
839.861,1.368
840.127,1.375
840.392,1.382
840.657,1.386
840.922,1.394
841.187,1.402
841.452,1.403
841.717,1.397
841.982,1.386
842.247,1.370
842.511,1.357
842.776,1.354
843.041,1.361
843.305,1.358
843.570,1.351
843.834,1.343
844.098,1.339
844.362,1.340
844.627,1.340
844.891,1.342
845.155,1.347
845.419,1.357
845.682,1.365
845.946,1.370
846.210,1.371
846.474,1.370
846.737,1.371
847.001,1.367
847.264,1.357
847.527,1.348
847.790,1.346
848.054,1.348
848.317,1.345
848.580,1.341
848.843,1.343
849.105,1.362
849.368,1.383
849.631,1.394
849.893,1.396
850.156,1.397
850.418,1.396
850.680,1.380
850.943,1.364
851.205,1.360
851.467,1.361
851.729,1.356
851.991,1.353
852.252,1.359
852.514,1.369
852.776,1.374
853.037,1.381
853.298,1.381
853.560,1.373
853.821,1.354
854.082,1.335
854.343,1.336
854.604,1.358
854.865,1.391
855.126,1.408
855.386,1.413
855.647,1.407
855.907,1.398
856.168,1.382
856.428,1.369
856.688,1.362
856.948,1.348
857.208,1.335
857.468,1.330
857.727,1.339
857.987,1.347
858.247,1.354
858.506,1.365
858.765,1.372
859.024,1.362
859.284,1.349
859.543,1.337
859.801,1.335
860.060,1.335
860.319,1.347
860.577,1.361
860.836,1.372
861.094,1.376
861.352,1.377
861.611,1.368
861.869,1.355
862.127,1.346
862.384,1.350
862.642,1.355
862.900,1.367
863.157,1.373
863.414,1.370
863.672,1.354
863.929,1.337
864.186,1.334
864.443,1.340
864.699,1.346
864.956,1.349
865.212,1.341
865.469,1.339
865.725,1.345
865.981,1.359
866.237,1.366
866.493,1.364
866.749,1.352
867.005,1.343
867.260,1.333
867.516,1.329
867.771,1.325
868.026,1.327
868.282,1.341
868.536,1.352
868.791,1.352
869.046,1.340
869.301,1.330
869.555,1.330
869.809,1.341
870.064,1.355
870.318,1.367
870.572,1.375
870.826,1.364
871.079,1.354
871.333,1.345
871.586,1.350
871.840,1.352
872.093,1.351
872.346,1.360
872.599,1.373
872.852,1.388
873.105,1.391
873.357,1.383
873.610,1.369
873.862,1.365
874.114,1.369
874.366,1.376
874.618,1.372
874.870,1.355
875.121,1.334
875.373,1.325
875.624,1.329
875.876,1.335
876.127,1.335
876.378,1.331
876.629,1.330
876.879,1.335
877.130,1.342
877.381,1.339
877.631,1.326
877.881,1.314
878.131,1.322
878.381,1.344
878.631,1.369
878.881,1.382
879.130,1.379
879.380,1.368
879.629,1.361
879.878,1.353
880.127,1.348
880.376,1.350
880.625,1.365
880.873,1.380
881.122,1.387
881.370,1.382
881.618,1.368
881.866,1.351
882.114,1.338
882.362,1.336
882.610,1.344
882.857,1.356
883.105,1.361
883.352,1.350
883.599,1.336
883.846,1.325
884.093,1.327
884.340,1.339
884.586,1.356
884.833,1.365
885.079,1.367
885.325,1.358
885.571,1.353
885.817,1.350
886.063,1.357
886.309,1.364
886.554,1.373
886.800,1.379
887.045,1.383
887.290,1.372
887.535,1.351
887.780,1.340
888.025,1.348
888.270,1.370
888.514,1.390
888.758,1.396
889.003,1.390
889.247,1.368
889.491,1.364
889.735,1.368
889.978,1.382
890.222,1.380
890.465,1.375
890.709,1.368
890.952,1.359
891.195,1.348
891.438,1.339
891.681,1.331
891.923,1.330
892.166,1.333
892.408,1.336
892.651,1.334
892.893,1.327
893.135,1.325
893.377,1.329
893.619,1.338
893.861,1.349
894.102,1.360
894.344,1.375
894.585,1.393
894.826,1.405
895.067,1.400
895.308,1.385
895.549,1.364
895.790,1.348
896.031,1.333
896.271,1.338
896.512,1.354
896.752,1.369
896.992,1.367
897.232,1.356
897.472,1.349
897.712,1.360
897.952,1.379
898.191,1.385
898.431,1.381
898.670,1.381
898.910,1.388
899.149,1.401
899.388,1.408
899.627,1.407
899.866,1.395
900.105,1.374
900.343,1.362
900.582,1.362
900.820,1.372
901.059,1.387
901.297,1.393
901.535,1.378
901.773,1.354
902.011,1.334
902.249,1.322
902.487,1.319
902.725,1.320
902.963,1.331
903.200,1.337
903.438,1.340
903.675,1.344
903.912,1.353
904.150,1.365
904.387,1.365
904.624,1.350
904.861,1.330
905.098,1.321
905.334,1.328
905.571,1.331
905.808,1.334
906.045,1.342
906.281,1.354
906.518,1.357
906.754,1.361
906.990,1.366
907.227,1.368
907.463,1.354
907.699,1.343
907.935,1.345
908.171,1.357
908.407,1.359
908.643,1.355
908.879,1.347
909.115,1.352
909.350,1.359
909.586,1.367
909.822,1.368
910.057,1.378
910.293,1.398
910.528,1.411
910.764,1.409
910.999,1.398
911.235,1.385
911.470,1.385
911.706,1.380
911.941,1.382
912.176,1.376
912.412,1.368
912.647,1.365
912.882,1.368
913.117,1.370
913.352,1.364
913.588,1.352
913.823,1.345
914.058,1.344
914.293,1.348
914.528,1.344
914.763,1.340
914.999,1.338
915.234,1.340
915.469,1.344
915.704,1.344
915.939,1.340
916.174,1.335
916.409,1.339
916.645,1.356
916.880,1.370
917.115,1.376
917.350,1.370
917.586,1.366
917.821,1.367
918.056,1.372
918.292,1.376
918.527,1.371
918.763,1.360
918.998,1.353
919.234,1.365
919.469,1.384
919.705,1.392
919.940,1.384
920.176,1.376
920.412,1.382
920.648,1.385
920.884,1.379
921.120,1.364
921.356,1.356
921.592,1.351
921.828,1.349
922.065,1.350
922.301,1.360
922.537,1.373
922.774,1.377
923.011,1.366
923.247,1.349
923.484,1.346
923.721,1.355
923.958,1.368
924.195,1.370
924.433,1.366
924.670,1.351
924.908,1.337
925.145,1.335
925.383,1.350
925.621,1.362
925.859,1.369
926.097,1.371
926.335,1.371
926.574,1.373
926.813,1.378
927.051,1.380
927.290,1.376
927.529,1.381
927.769,1.396
928.008,1.402
928.248,1.385
928.487,1.366
928.727,1.361
928.967,1.380
929.208,1.393
929.448,1.395
929.689,1.381
929.930,1.363
930.171,1.345
930.413,1.340
930.654,1.341
930.896,1.337
931.138,1.326
931.380,1.318
931.623,1.326
931.865,1.343
932.108,1.363
932.352,1.375
932.595,1.379
932.839,1.381
933.083,1.376
933.327,1.367
933.571,1.353
933.816,1.352
934.061,1.356
934.307,1.360
934.552,1.352
934.798,1.344
935.045,1.343
935.291,1.349
935.538,1.354
935.785,1.360
936.033,1.370
936.281,1.379
936.529,1.384
936.777,1.379
937.026,1.366
937.275,1.355
937.525,1.346
937.775,1.342
938.025,1.336
938.276,1.331
938.527,1.332
938.778,1.333
939.030,1.331
939.282,1.330
939.535,1.333
939.788,1.345
940.041,1.346
940.295,1.343
940.550,1.343
940.804,1.355
941.059,1.366
941.315,1.360
941.571,1.346
941.828,1.337
942.085,1.338
942.342,1.344
942.600,1.344
942.858,1.341
943.117,1.334
943.377,1.329
943.636,1.324
943.897,1.322
944.158,1.326
944.419,1.336
944.681,1.346
944.944,1.354
945.207,1.362
945.470,1.367
945.734,1.369
945.999,1.378
946.264,1.389
946.530,1.396
946.797,1.391
947.064,1.383
947.331,1.374
947.600,1.361
947.869,1.347
948.138,1.337
948.408,1.334
948.679,1.340
948.950,1.348
949.222,1.346
949.495,1.338
949.768,1.339
950.043,1.352
