Wavelength (nm),Intensity W25.3,,C:/Users/Brend/Desktop/LED Spectras v2/Spectrometer Data (White).sp,,,W25.3,
379.792,2.863,,2018-06-15 14:12:22,,Integration Time,299 ms,
380.000,2.854,,Analyze Light,,Number of Scans to Average,25,
380.209,2.846,,,,Smoothing,1,
380.418,2.872
380.627,2.908
380.837,2.945
381.048,2.962
381.259,2.961
381.471,2.953
381.683,2.964
381.896,2.994
382.110,3.013
382.324,3.038
382.538,3.071
382.753,3.108
382.969,3.095
383.185,3.068
383.402,3.045
383.619,3.072
383.837,3.106
384.055,3.154
384.274,3.188
384.493,3.211
384.712,3.220
384.932,3.230
385.153,3.242
385.374,3.260
385.596,3.277
385.818,3.313
386.040,3.344
386.263,3.376
386.487,3.380
386.710,3.380
386.935,3.357
387.159,3.352
387.385,3.347
387.610,3.355
387.836,3.361
388.063,3.379
388.289,3.400
388.517,3.418
388.744,3.418
388.972,3.440
389.201,3.454
389.430,3.478
389.659,3.492
389.889,3.520
390.119,3.544
390.349,3.563
390.580,3.583
390.811,3.597
391.042,3.601
391.274,3.606
391.507,3.619
391.739,3.629
391.972,3.623
392.205,3.628
392.439,3.651
392.673,3.688
392.907,3.719
393.142,3.752
393.377,3.774
393.612,3.801
393.848,3.811
394.084,3.828
394.320,3.829
394.557,3.852
394.794,3.861
395.031,3.887
395.269,3.909
395.507,3.941
395.745,3.953
395.983,3.963
396.222,3.972
396.461,4.008
396.700,4.051
396.940,4.084
397.180,4.091
397.420,4.080
397.660,4.067
397.901,4.056
398.142,4.057
398.383,4.058
398.625,4.058
398.866,4.078
399.108,4.131
399.351,4.211
399.593,4.241
399.836,4.243
400.079,4.212
400.322,4.202
400.566,4.186
400.809,4.187
401.053,4.198
401.298,4.227
401.542,4.259
401.787,4.296
402.031,4.322
402.277,4.346
402.522,4.348
402.767,4.358
403.013,4.342
403.259,4.346
403.505,4.343
403.752,4.357
403.998,4.369
404.245,4.411
404.492,4.456
404.739,4.491
404.986,4.504
405.234,4.521
405.482,4.535
405.730,4.543
405.978,4.554
406.226,4.561
406.475,4.558
406.723,4.558
406.972,4.581
407.221,4.616
407.470,4.639
407.720,4.662
407.969,4.659
408.219,4.689
408.469,4.716
408.719,4.760
408.969,4.770
409.219,4.789
409.470,4.809
409.720,4.844
409.971,4.868
410.222,4.895
410.473,4.902
410.724,4.905
410.976,4.911
411.227,4.939
411.479,4.958
411.731,4.980
411.983,4.978
412.235,4.990
412.487,4.986
412.740,5.003
412.992,5.010
413.245,5.033
413.497,5.040
413.750,5.053
414.003,5.049
414.257,5.051
414.510,5.044
414.763,5.060
415.017,5.077
415.270,5.100
415.524,5.105
415.778,5.110
416.032,5.116
416.286,5.146
416.540,5.169
416.794,5.198
417.049,5.206
417.303,5.224
417.558,5.239
417.812,5.253
418.067,5.259
418.322,5.269
418.577,5.270
418.832,5.270
419.088,5.251
419.343,5.259
419.598,5.259
419.854,5.283
420.109,5.302
420.365,5.344
420.621,5.368
420.876,5.400
421.132,5.415
421.388,5.429
421.645,5.430
421.901,5.450
422.157,5.473
422.413,5.503
422.670,5.518
422.926,5.541
423.183,5.551
423.439,5.591
423.696,5.636
423.953,5.729
424.210,5.804
424.467,5.854
424.724,5.867
424.981,5.877
425.238,5.914
425.495,5.987
425.753,6.056
426.010,6.130
426.267,6.186
426.525,6.278
426.782,6.365
427.040,6.459
427.298,6.545
427.555,6.651
427.813,6.745
428.071,6.843
428.329,6.936
428.587,7.039
428.845,7.148
429.103,7.267
429.361,7.383
429.619,7.505
429.878,7.632
430.136,7.793
430.394,7.949
430.653,8.142
430.911,8.343
431.170,8.551
431.428,8.723
431.687,8.893
431.946,9.066
432.204,9.267
432.463,9.480
432.722,9.705
432.981,9.928
433.240,10.175
433.499,10.430
433.758,10.709
434.017,10.959
434.276,11.222
434.535,11.475
434.794,11.755
435.053,12.050
435.312,12.380
435.572,12.710
435.831,13.054
436.090,13.408
436.350,13.790
436.609,14.182
436.869,14.573
437.128,14.961
437.388,15.366
437.647,15.788
437.907,16.239
438.166,16.695
438.426,17.160
438.686,17.628
438.946,18.115
439.205,18.638
439.465,19.196
439.725,19.792
439.985,20.400
440.245,20.993
440.505,21.588
440.765,22.175
441.025,22.785
441.285,23.410
441.545,24.073
441.805,24.765
442.065,25.465
442.325,26.195
442.585,26.967
442.846,27.793
443.106,28.678
443.366,29.587
443.626,30.517
443.887,31.464
444.147,32.456
444.407,33.496
444.668,34.581
444.928,35.710
445.189,36.914
445.449,38.176
445.710,39.500
445.970,40.870
446.231,42.304
446.491,43.803
446.752,45.349
447.012,46.936
447.273,48.593
447.534,50.290
447.794,52.029
448.055,53.788
448.316,55.641
448.577,57.601
448.837,59.640
449.098,61.726
449.359,63.830
449.620,65.933
449.881,68.015
450.142,70.090
450.403,72.187
450.664,74.308
450.924,76.428
451.185,78.511
451.446,80.515
451.707,82.368
451.969,84.041
452.230,85.467
452.491,86.662
452.752,87.637
453.013,88.480
453.274,89.217
453.535,89.869
453.796,90.437
454.058,90.919
454.319,91.319
454.580,91.629
454.841,91.862
455.103,92.024
455.364,92.131
455.625,92.195
455.887,92.210
456.148,92.164
456.409,92.072
456.671,91.940
456.932,91.773
457.194,91.554
457.455,91.283
457.716,90.941
457.978,90.535
458.239,90.077
458.501,89.578
458.763,89.017
459.024,88.382
459.286,87.663
459.547,86.862
459.809,85.924
460.071,84.834
460.332,83.567
460.594,82.186
460.856,80.732
461.117,79.246
461.379,77.768
461.641,76.305
461.903,74.874
462.164,73.481
462.426,72.135
462.688,70.842
462.950,69.593
463.212,68.411
463.474,67.265
463.736,66.144
463.998,65.073
464.260,64.073
464.522,63.146
464.784,62.266
465.046,61.424
465.308,60.654
465.570,59.930
465.832,59.266
466.094,58.630
466.356,58.018
466.618,57.427
466.880,56.821
467.142,56.225
467.405,55.638
467.667,55.101
467.929,54.584
468.191,54.076
468.454,53.548
468.716,53.008
468.978,52.428
469.241,51.812
469.503,51.198
469.765,50.612
470.028,50.058
470.290,49.491
470.552,48.912
470.815,48.333
471.077,47.752
471.340,47.168
471.602,46.560
471.865,45.919
472.128,45.251
472.390,44.602
472.653,43.959
472.915,43.322
473.178,42.658
473.441,41.997
473.703,41.334
473.966,40.679
474.229,40.021
474.492,39.342
474.755,38.641
475.017,37.974
475.280,37.343
475.543,36.743
475.806,36.093
476.069,35.444
476.332,34.800
476.595,34.223
476.858,33.654
477.121,33.094
477.384,32.537
477.647,32.025
477.910,31.537
478.173,31.075
478.436,30.614
478.699,30.181
478.962,29.753
479.226,29.379
479.489,29.025
479.752,28.702
480.015,28.353
480.279,28.024
480.542,27.686
480.805,27.358
481.069,27.013
481.332,26.685
481.595,26.390
481.859,26.163
482.122,25.955
482.386,25.737
482.649,25.490
482.913,25.258
483.177,25.024
483.440,24.787
483.704,24.559
483.967,24.386
484.231,24.241
484.495,24.115
484.759,23.974
485.022,23.822
485.286,23.655
485.550,23.481
485.814,23.286
486.078,23.107
486.342,22.957
486.606,22.865
486.869,22.774
487.133,22.685
487.397,22.591
487.662,22.505
487.926,22.397
488.190,22.286
488.454,22.160
488.718,22.051
488.982,21.917
489.246,21.805
489.511,21.687
489.775,21.602
490.039,21.521
490.304,21.453
490.568,21.367
490.832,21.297
491.097,21.246
491.361,21.215
491.626,21.174
491.890,21.129
492.155,21.091
492.419,21.073
492.684,21.043
492.949,21.015
493.213,20.997
493.478,21.022
493.743,21.042
494.008,21.037
494.272,21.018
494.537,21.037
494.802,21.093
495.067,21.181
495.332,21.271
495.597,21.367
495.862,21.438
496.127,21.515
496.392,21.577
496.657,21.641
496.922,21.707
497.187,21.803
497.452,21.924
497.718,22.077
497.983,22.210
498.248,22.327
498.513,22.409
498.779,22.534
499.044,22.665
499.310,22.780
499.575,22.869
499.841,22.988
500.106,23.137
500.372,23.291
500.637,23.443
500.903,23.623
501.168,23.794
501.434,23.941
501.700,24.048
501.966,24.176
502.231,24.314
502.497,24.471
502.763,24.603
503.029,24.733
503.295,24.876
503.561,25.036
503.827,25.204
504.093,25.358
504.359,25.503
504.625,25.665
504.891,25.820
505.157,25.993
505.423,26.131
505.690,26.273
505.956,26.408
506.222,26.572
506.489,26.761
506.755,26.957
507.021,27.132
507.288,27.301
507.554,27.452
507.821,27.619
508.087,27.776
508.354,27.969
508.621,28.143
508.887,28.309
509.154,28.452
509.421,28.611
509.687,28.754
509.954,28.895
510.221,29.036
510.488,29.222
510.755,29.413
511.022,29.612
511.289,29.766
511.556,29.915
511.823,30.035
512.090,30.181
512.357,30.308
512.624,30.445
512.891,30.570
513.159,30.703
513.426,30.830
513.693,30.962
513.960,31.090
514.228,31.236
514.495,31.383
514.763,31.542
515.030,31.694
515.298,31.844
515.565,31.992
515.833,32.132
516.100,32.246
516.368,32.344
516.636,32.414
516.904,32.518
517.171,32.624
517.439,32.765
517.707,32.894
517.975,33.041
518.243,33.176
518.511,33.287
518.779,33.350
519.047,33.441
519.315,33.544
519.583,33.654
519.851,33.728
520.119,33.817
520.387,33.924
520.656,34.048
520.924,34.168
521.192,34.289
521.461,34.385
521.729,34.472
521.997,34.542
522.266,34.627
522.534,34.703
522.803,34.805
523.071,34.898
523.340,34.990
523.609,35.055
523.877,35.127
524.146,35.207
524.415,35.304
524.684,35.402
524.952,35.492
525.221,35.572
525.490,35.673
525.759,35.770
526.028,35.854
526.297,35.878
526.566,35.912
526.835,35.960
527.104,36.052
527.373,36.133
527.642,36.195
527.912,36.221
528.181,36.249
528.450,36.296
528.719,36.371
528.989,36.462
529.258,36.560
529.528,36.632
529.797,36.676
530.067,36.717
530.336,36.758
530.606,36.786
530.875,36.783
531.145,36.780
531.414,36.806
531.684,36.855
531.954,36.899
532.224,36.925
532.493,36.938
532.763,36.969
533.033,37.018
533.303,37.071
533.573,37.120
533.843,37.126
534.113,37.152
534.383,37.175
534.653,37.246
534.923,37.301
535.193,37.349
535.463,37.372
535.733,37.398
536.004,37.424
536.274,37.450
536.544,37.450
536.814,37.461
537.085,37.489
537.355,37.560
537.626,37.646
537.896,37.720
538.166,37.771
538.437,37.810
538.707,37.846
538.978,37.912
539.249,37.997
539.519,38.093
539.790,38.152
540.061,38.202
540.331,38.244
540.602,38.288
540.873,38.292
541.144,38.289
541.414,38.279
541.685,38.289
541.956,38.294
542.227,38.308
542.498,38.320
542.769,38.345
543.040,38.393
543.311,38.482
543.582,38.591
543.853,38.690
544.124,38.748
544.396,38.787
544.667,38.806
544.938,38.826
545.209,38.778
545.480,38.730
545.752,38.666
546.023,38.650
546.294,38.602
546.566,38.554
546.837,38.496
547.109,38.476
547.380,38.470
547.652,38.481
547.923,38.488
548.195,38.496
548.466,38.496
548.738,38.496
549.009,38.471
549.281,38.434
549.553,38.387
549.824,38.337
550.096,38.309
550.368,38.298
550.640,38.301
550.911,38.306
551.183,38.326
551.455,38.366
551.727,38.378
551.999,38.347
552.271,38.275
552.543,38.228
552.815,38.189
553.087,38.195
553.359,38.183
553.631,38.166
553.903,38.100
554.175,38.036
554.447,37.973
554.719,37.925
554.991,37.881
555.263,37.839
555.535,37.800
555.808,37.767
556.080,37.732
556.352,37.689
556.624,37.627
556.897,37.556
557.169,37.482
557.441,37.418
557.714,37.365
557.986,37.330
558.258,37.296
558.531,37.295
558.803,37.294
559.076,37.284
559.348,37.221
559.621,37.144
559.893,37.079
560.166,37.038
560.438,37.004
560.711,36.972
560.983,36.944
561.256,36.940
561.528,36.939
561.801,36.930
562.074,36.891
562.346,36.856
562.619,36.810
562.892,36.752
563.164,36.678
563.437,36.631
563.710,36.589
563.983,36.540
564.255,36.489
564.528,36.489
564.801,36.526
565.074,36.556
565.346,36.531
565.619,36.489
565.892,36.432
566.165,36.369
566.438,36.263
566.711,36.157
566.984,36.057
567.257,35.989
567.529,35.941
567.802,35.933
568.075,35.917
568.348,35.876
568.621,35.811
568.894,35.744
569.167,35.673
569.440,35.596
569.713,35.497
569.986,35.417
570.259,35.313
570.532,35.233
570.805,35.151
571.078,35.102
571.351,35.057
571.625,35.009
571.898,34.918
572.171,34.806
572.444,34.688
572.717,34.588
572.990,34.486
573.263,34.351
573.536,34.192
573.809,34.035
574.083,33.917
574.356,33.849
574.629,33.820
574.902,33.792
575.175,33.742
575.448,33.665
575.721,33.573
575.995,33.487
576.268,33.403
576.541,33.361
576.814,33.339
577.087,33.329
577.361,33.290
577.634,33.232
577.907,33.143
578.180,33.042
578.453,32.934
578.727,32.849
579.000,32.755
579.273,32.678
579.546,32.623
579.820,32.609
580.093,32.580
580.366,32.529
580.639,32.448
580.913,32.385
581.186,32.310
581.459,32.239
581.732,32.128
582.005,32.018
582.279,31.883
582.552,31.766
582.825,31.651
583.098,31.559
583.372,31.492
583.645,31.458
583.918,31.442
584.191,31.433
584.464,31.404
584.738,31.372
585.011,31.306
585.284,31.213
585.557,31.084
585.831,30.954
586.104,30.840
586.377,30.785
586.650,30.749
586.923,30.716
587.196,30.657
587.470,30.590
587.743,30.522
588.016,30.451
588.289,30.376
588.562,30.298
588.835,30.189
589.109,30.070
589.382,29.955
589.655,29.874
589.928,29.803
590.201,29.733
590.474,29.676
590.747,29.636
591.020,29.592
591.293,29.519
591.567,29.406
591.840,29.276
592.113,29.139
592.386,28.999
592.659,28.847
592.932,28.718
593.205,28.624
593.478,28.555
593.751,28.479
594.024,28.409
594.297,28.321
594.570,28.223
594.843,28.107
595.116,27.995
595.389,27.875
595.662,27.759
595.934,27.656
596.207,27.577
596.480,27.493
596.753,27.402
597.026,27.291
597.299,27.200
597.572,27.113
597.844,27.033
598.117,26.905
598.390,26.760
598.663,26.591
598.936,26.453
599.208,26.332
599.481,26.245
599.754,26.164
600.026,26.070
600.299,25.965
600.572,25.859
600.844,25.748
601.117,25.618
601.390,25.475
601.662,25.342
601.935,25.210
602.207,25.084
602.480,24.946
602.752,24.811
603.025,24.656
603.297,24.527
603.570,24.436
603.842,24.396
604.115,24.338
604.387,24.271
604.660,24.158
604.932,24.049
605.204,23.932
605.477,23.830
605.749,23.734
606.021,23.637
606.294,23.526
606.566,23.389
606.838,23.255
607.110,23.140
607.383,23.068
607.655,23.021
607.927,22.980
608.199,22.927
608.471,22.845
608.743,22.734
609.015,22.596
609.287,22.447
609.559,22.297
609.831,22.165
610.103,22.040
610.375,21.910
610.647,21.754
610.919,21.583
611.191,21.423
611.463,21.285
611.735,21.132
612.007,20.958
612.278,20.771
612.550,20.616
612.822,20.486
613.094,20.358
613.365,20.198
613.637,20.055
613.909,19.916
614.180,19.806
614.452,19.670
614.723,19.531
614.995,19.381
615.266,19.255
615.538,19.157
615.809,19.075
616.081,18.959
616.352,18.816
616.623,18.660
616.895,18.526
617.166,18.391
617.437,18.261
617.709,18.138
617.980,18.047
618.251,17.976
618.522,17.924
618.793,17.884
619.065,17.861
619.336,17.785
619.607,17.671
619.878,17.536
620.149,17.438
620.420,17.317
620.691,17.175
620.962,17.032
621.232,16.935
621.503,16.835
621.774,16.743
622.045,16.645
622.316,16.592
622.586,16.535
622.857,16.485
623.128,16.392
623.398,16.291
623.669,16.170
623.940,16.051
624.210,15.927
624.481,15.840
624.751,15.747
625.021,15.660
625.292,15.544
625.562,15.472
625.833,15.397
626.103,15.336
626.373,15.250
626.643,15.182
626.914,15.104
627.184,15.029
627.454,14.938
627.724,14.844
627.994,14.747
628.264,14.652
628.534,14.543
628.804,14.442
629.074,14.362
629.344,14.303
629.614,14.243
629.884,14.176
630.154,14.104
630.424,14.033
630.693,13.948
630.963,13.856
631.233,13.758
631.502,13.681
631.772,13.621
632.041,13.554
632.311,13.463
632.581,13.368
632.850,13.283
633.119,13.193
633.389,13.104
633.658,13.031
633.928,12.993
634.197,12.973
634.466,12.958
634.735,12.930
635.004,12.866
635.274,12.782
635.543,12.697
635.812,12.631
636.081,12.570
636.350,12.512
636.619,12.444
636.888,12.372
637.157,12.291
637.426,12.223
637.694,12.151
637.963,12.075
638.232,12.000
638.501,11.937
638.769,11.890
639.038,11.846
639.307,11.803
639.575,11.752
639.844,11.672
640.112,11.575
640.381,11.477
640.649,11.403
640.917,11.353
641.186,11.296
641.454,11.247
641.722,11.186
641.991,11.125
642.259,11.037
642.527,10.951
642.795,10.883
643.063,10.811
643.331,10.745
643.599,10.678
643.867,10.655
644.135,10.633
644.403,10.621
644.671,10.572
644.939,10.522
645.206,10.457
645.474,10.403
645.742,10.334
646.009,10.255
646.277,10.188
646.545,10.131
646.812,10.104
647.080,10.084
647.347,10.056
647.615,9.997
647.882,9.907
648.149,9.817
648.417,9.735
648.684,9.673
648.951,9.629
649.219,9.590
649.486,9.543
649.753,9.477
650.020,9.391
650.287,9.305
650.554,9.218
650.821,9.145
651.088,9.068
651.355,9.022
651.622,8.966
651.889,8.921
652.155,8.859
652.422,8.813
652.689,8.773
652.956,8.730
653.222,8.689
653.489,8.669
653.755,8.635
654.022,8.564
654.288,8.447
654.555,8.347
654.821,8.281
655.088,8.242
655.354,8.202
655.620,8.169
655.887,8.121
656.153,8.069
656.419,8.002
656.685,7.939
656.951,7.879
657.217,7.819
657.483,7.749
657.749,7.682
658.015,7.621
658.281,7.567
658.547,7.504
658.813,7.435
659.079,7.369
659.345,7.305
659.610,7.246
659.876,7.192
660.142,7.145
660.407,7.104
660.673,7.065
660.939,7.031
661.204,6.986
661.470,6.943
661.735,6.902
662.000,6.882
662.266,6.850
662.531,6.804
662.796,6.744
663.062,6.680
663.327,6.616
663.592,6.566
663.857,6.525
664.122,6.491
664.388,6.442
664.653,6.403
664.918,6.373
665.183,6.341
665.448,6.310
665.712,6.278
665.977,6.255
666.242,6.218
666.507,6.135
666.772,6.048
667.037,5.964
667.301,5.924
667.566,5.883
667.831,5.859
668.095,5.827
668.360,5.806
668.624,5.756
668.889,5.733
669.153,5.695
669.418,5.670
669.682,5.632
669.946,5.606
670.211,5.600
670.475,5.586
670.739,5.571
671.004,5.552
671.268,5.562
671.532,5.582
671.796,5.522
672.060,5.434
672.324,5.333
672.588,5.307
672.852,5.297
673.116,5.337
673.380,5.386
673.644,5.330
673.908,5.213
674.172,5.083
674.436,5.054
674.700,5.032
674.963,5.005
675.227,4.973
675.491,4.922
675.754,4.867
676.018,4.808
676.282,4.780
676.545,4.747
676.809,4.700
677.072,4.644
677.336,4.596
677.599,4.576
677.863,4.552
678.126,4.537
678.389,4.537
678.653,4.538
678.916,4.515
679.179,4.451
679.442,4.395
679.706,4.364
679.969,4.345
680.232,4.329
680.495,4.316
680.758,4.305
681.021,4.274
681.284,4.227
681.547,4.178
681.810,4.159
682.073,4.164
682.336,4.170
682.599,4.153
682.862,4.125
683.125,4.106
683.388,4.106
683.651,4.091
683.913,4.062
684.176,4.000
684.439,3.935
684.702,3.868
684.964,3.824
685.227,3.801
685.490,3.803
685.752,3.825
686.015,3.822
686.277,3.794
686.540,3.747
686.802,3.700
687.065,3.672
687.327,3.654
687.590,3.643
687.852,3.620
688.115,3.585
688.377,3.559
688.639,3.542
688.902,3.527
689.164,3.512
689.426,3.510
689.689,3.511
689.951,3.492
690.213,3.458
690.475,3.425
690.737,3.394
691.000,3.363
691.262,3.340
691.524,3.336
691.786,3.345
692.048,3.353
692.310,3.338
692.572,3.293
692.834,3.239
693.096,3.209
693.358,3.210
693.620,3.229
693.882,3.242
694.144,3.238
694.406,3.209
694.668,3.177
694.930,3.142
695.192,3.109
695.453,3.086
695.715,3.068
695.977,3.050
696.239,3.014
696.501,2.993
696.762,2.991
697.024,2.995
697.286,2.973
697.548,2.945
697.809,2.921
698.071,2.904
698.333,2.888
698.594,2.870
698.856,2.867
699.118,2.861
699.379,2.852
699.641,2.847
699.902,2.848
700.164,2.837
700.426,2.805
700.687,2.763
700.949,2.743
701.210,2.729
701.472,2.716
701.733,2.688
701.995,2.673
702.256,2.658
702.518,2.649
702.779,2.631
703.041,2.643
703.302,2.671
703.563,2.674
703.825,2.642
704.086,2.601
704.348,2.584
704.609,2.581
704.871,2.591
705.132,2.605
705.393,2.589
705.655,2.565
705.916,2.544
706.177,2.540
706.439,2.533
706.700,2.522
706.961,2.508
707.223,2.501
707.484,2.467
707.745,2.432
708.007,2.389
708.268,2.357
708.529,2.328
708.790,2.288
709.052,2.259
709.313,2.244
709.574,2.246
709.835,2.247
710.097,2.229
710.358,2.188
710.619,2.147
710.881,2.109
711.142,2.089
711.403,2.069
711.664,2.062
711.926,2.039
712.187,2.029
712.448,2.024
712.709,2.040
712.970,2.056
713.232,2.066
713.493,2.067
713.754,2.058
714.015,2.054
714.277,2.060
714.538,2.067
714.799,2.083
715.060,2.084
715.322,2.080
715.583,2.053
715.844,2.026
716.105,1.994
716.367,1.973
716.628,1.969
716.889,1.969
717.150,1.953
717.411,1.919
717.673,1.903
717.934,1.905
718.195,1.914
718.457,1.900
718.718,1.871
718.979,1.851
719.240,1.851
719.502,1.869
719.763,1.883
720.024,1.887
720.286,1.880
720.547,1.857
720.808,1.837
721.069,1.829
721.331,1.841
721.592,1.863
721.853,1.871
722.115,1.867
722.376,1.858
722.638,1.844
722.899,1.839
723.160,1.823
723.422,1.811
723.683,1.797
723.944,1.801
724.206,1.804
724.467,1.804
724.729,1.799
724.990,1.809
725.252,1.820
725.513,1.805
725.775,1.771
726.036,1.742
726.298,1.735
726.559,1.746
726.821,1.748
727.082,1.749
727.344,1.745
727.605,1.745
727.867,1.736
728.128,1.739
728.390,1.741
728.652,1.760
728.913,1.785
729.175,1.806
729.436,1.808
729.698,1.807
729.960,1.795
730.221,1.782
730.483,1.750
730.745,1.738
731.007,1.739
731.268,1.745
731.530,1.747
731.792,1.742
732.054,1.744
732.315,1.749
732.577,1.756
732.839,1.747
733.101,1.730
733.363,1.716
733.625,1.717
733.887,1.724
734.149,1.728
734.411,1.738
734.673,1.746
734.935,1.752
735.197,1.744
735.459,1.749
735.721,1.757
735.983,1.752
736.245,1.723
736.507,1.713
736.769,1.724
737.031,1.744
737.293,1.736
737.555,1.711
737.818,1.689
738.080,1.676
738.342,1.677
738.604,1.678
738.867,1.686
739.129,1.689
739.391,1.689
739.654,1.686
739.916,1.688
740.178,1.702
740.441,1.727
740.703,1.742
740.966,1.734
741.228,1.718
741.491,1.707
741.753,1.713
742.016,1.712
742.278,1.709
742.541,1.709
742.804,1.718
743.066,1.739
743.329,1.748
743.592,1.741
743.854,1.736
744.117,1.741
744.380,1.751
744.643,1.745
744.905,1.729
745.168,1.720
745.431,1.713
745.694,1.705
745.957,1.692
746.220,1.682
746.483,1.675
746.746,1.675
747.009,1.694
747.272,1.735
747.535,1.772
747.798,1.777
748.061,1.747
748.324,1.706
748.588,1.683
748.851,1.682
749.114,1.685
749.377,1.696
749.641,1.698
749.904,1.712
750.167,1.728
750.431,1.742
750.694,1.753
750.958,1.754
751.221,1.741
751.485,1.706
751.748,1.680
752.012,1.683
752.275,1.720
752.539,1.740
752.803,1.733
753.066,1.703
753.330,1.680
753.594,1.672
753.857,1.669
754.121,1.682
754.385,1.700
754.649,1.714
754.913,1.720
755.177,1.728
755.441,1.722
755.705,1.702
755.969,1.674
756.233,1.677
756.497,1.692
756.761,1.699
757.025,1.684
757.289,1.674
757.553,1.672
757.818,1.681
758.082,1.690
758.346,1.692
758.610,1.696
758.875,1.698
759.139,1.699
759.404,1.689
759.668,1.677
759.932,1.678
760.197,1.695
760.462,1.706
760.726,1.707
760.991,1.701
761.255,1.699
761.520,1.695
761.785,1.678
762.049,1.652
762.314,1.633
762.579,1.641
762.844,1.667
763.109,1.686
763.374,1.685
763.639,1.675
763.903,1.662
764.168,1.651
764.433,1.648
764.699,1.666
764.964,1.679
765.229,1.676
765.494,1.657
765.759,1.649
766.024,1.648
766.290,1.660
766.555,1.675
766.820,1.685
767.086,1.692
767.351,1.694
767.616,1.692
767.882,1.679
768.147,1.664
768.413,1.650
768.678,1.637
768.944,1.636
769.209,1.650
769.475,1.673
769.741,1.692
770.006,1.707
770.272,1.718
770.538,1.717
770.804,1.706
771.070,1.696
771.335,1.704
771.601,1.725
771.867,1.734
772.133,1.724
772.399,1.701
772.665,1.669
772.931,1.659
773.197,1.669
773.464,1.695
773.730,1.718
773.996,1.724
774.262,1.730
774.528,1.722
774.795,1.723
775.061,1.732
775.327,1.737
775.594,1.721
775.860,1.688
776.126,1.647
776.393,1.614
776.659,1.596
776.926,1.589
777.193,1.598
777.459,1.609
777.726,1.612
777.992,1.611
778.259,1.600
778.526,1.609
778.793,1.617
779.059,1.633
779.326,1.649
779.593,1.661
779.860,1.678
780.127,1.678
780.394,1.671
780.661,1.658
780.928,1.640
781.195,1.625
781.462,1.611
781.729,1.615
781.996,1.624
782.263,1.632
782.530,1.649
782.797,1.661
783.064,1.649
783.332,1.624
783.599,1.604
783.866,1.608
784.134,1.606
784.401,1.605
784.668,1.606
784.936,1.615
785.203,1.615
785.470,1.600
785.738,1.589
786.005,1.589
786.273,1.592
786.541,1.582
786.808,1.579
787.076,1.582
787.343,1.597
787.611,1.616
787.879,1.643
788.146,1.652
788.414,1.658
788.682,1.642
788.950,1.635
789.217,1.630
789.485,1.648
789.753,1.665
790.021,1.649
790.289,1.613
790.557,1.570
790.825,1.558
791.093,1.572
791.361,1.611
791.629,1.644
791.897,1.664
792.165,1.661
792.433,1.647
792.701,1.609
792.969,1.572
793.237,1.549
793.505,1.563
793.773,1.591
794.042,1.600
794.310,1.591
794.578,1.582
794.846,1.582
795.115,1.581
795.383,1.584
795.651,1.605
795.920,1.621
796.188,1.624
796.456,1.625
796.725,1.627
796.993,1.648
797.261,1.660
797.530,1.661
797.798,1.645
798.067,1.644
798.335,1.656
798.604,1.655
798.872,1.623
799.141,1.591
799.409,1.580
799.678,1.592
799.946,1.609
800.215,1.619
800.483,1.615
800.752,1.611
801.020,1.603
801.289,1.601
801.558,1.599
801.826,1.604
802.095,1.598
802.363,1.597
802.632,1.600
802.901,1.617
803.169,1.628
803.438,1.626
803.707,1.608
803.976,1.584
804.244,1.576
804.513,1.579
804.782,1.568
805.050,1.557
805.319,1.561
805.588,1.588
805.857,1.618
806.125,1.634
806.394,1.633
806.663,1.608
806.931,1.578
807.200,1.561
807.469,1.565
807.738,1.569
808.006,1.571
808.275,1.582
808.544,1.611
808.813,1.637
809.082,1.638
809.350,1.621
809.619,1.606
809.888,1.591
810.157,1.576
810.425,1.563
810.694,1.564
810.963,1.579
811.232,1.581
811.500,1.569
811.769,1.543
812.038,1.542
812.306,1.561
812.575,1.593
812.844,1.610
813.113,1.618
813.381,1.605
813.650,1.603
813.919,1.611
814.187,1.632
814.456,1.641
814.725,1.644
814.993,1.633
815.262,1.624
815.531,1.617
815.799,1.619
816.068,1.609
816.336,1.587
816.605,1.577
816.873,1.583
817.142,1.603
817.411,1.621
817.679,1.634
817.948,1.652
818.216,1.680
818.485,1.738
818.753,1.787
819.021,1.752
819.290,1.662
819.558,1.586
819.827,1.585
820.095,1.613
820.363,1.626
820.632,1.624
820.900,1.620
821.168,1.625
821.437,1.639
821.705,1.644
821.973,1.645
822.241,1.639
822.509,1.639
822.777,1.628
823.046,1.620
823.314,1.622
823.582,1.637
823.850,1.647
824.118,1.652
824.386,1.643
824.654,1.607
824.922,1.564
825.190,1.537
825.457,1.558
825.725,1.590
825.993,1.594
826.261,1.581
826.529,1.574
826.796,1.581
827.064,1.580
827.332,1.579
827.599,1.590
827.867,1.619
828.134,1.629
828.402,1.609
828.669,1.578
828.937,1.564
829.204,1.593
829.471,1.642
829.739,1.671
830.006,1.673
830.273,1.648
830.540,1.620
830.807,1.586
831.075,1.578
831.342,1.593
831.609,1.612
831.876,1.623
832.142,1.629
832.409,1.636
832.676,1.626
832.943,1.598
833.210,1.570
833.476,1.556
833.743,1.567
834.010,1.585
834.276,1.579
834.543,1.561
834.809,1.558
835.076,1.572
835.342,1.585
835.608,1.606
835.874,1.628
836.141,1.634
836.407,1.620
836.673,1.597
836.939,1.589
837.205,1.581
837.471,1.580
837.737,1.583
838.002,1.584
838.268,1.581
838.534,1.592
838.799,1.597
839.065,1.612
839.330,1.611
839.596,1.614
839.861,1.620
840.127,1.631
840.392,1.640
840.657,1.642
840.922,1.653
841.187,1.667
841.452,1.672
841.717,1.671
841.982,1.656
842.247,1.632
842.511,1.607
842.776,1.601
843.041,1.606
843.305,1.598
843.570,1.587
843.834,1.580
844.098,1.572
844.362,1.573
844.627,1.569
844.891,1.575
845.155,1.582
845.419,1.597
845.682,1.609
845.946,1.612
846.210,1.618
846.474,1.617
846.737,1.620
847.001,1.611
847.264,1.588
847.527,1.576
847.790,1.569
848.054,1.577
848.317,1.564
848.580,1.558
848.843,1.562
849.105,1.592
849.368,1.626
849.631,1.647
849.893,1.655
850.156,1.662
850.418,1.662
850.680,1.635
850.943,1.610
851.205,1.606
851.467,1.611
851.729,1.603
851.991,1.597
852.252,1.606
852.514,1.628
852.776,1.639
853.037,1.651
853.298,1.649
853.560,1.628
853.821,1.589
854.082,1.545
854.343,1.543
854.604,1.579
854.865,1.643
855.126,1.680
855.386,1.697
855.647,1.692
855.907,1.675
856.168,1.646
856.428,1.621
856.688,1.613
856.948,1.588
857.208,1.557
857.468,1.547
857.727,1.563
857.987,1.583
858.247,1.595
858.506,1.613
858.765,1.620
859.024,1.594
859.284,1.563
859.543,1.541
859.801,1.544
860.060,1.556
860.319,1.586
860.577,1.618
860.836,1.633
861.094,1.639
861.352,1.634
861.611,1.617
861.869,1.584
862.127,1.571
862.384,1.584
862.642,1.599
862.900,1.616
863.157,1.623
863.414,1.619
863.672,1.592
863.929,1.554
864.186,1.540
864.443,1.557
864.699,1.581
864.956,1.596
865.212,1.573
865.469,1.563
865.725,1.569
865.981,1.596
866.237,1.607
866.493,1.608
866.749,1.587
867.005,1.572
867.260,1.552
867.516,1.539
867.771,1.526
868.026,1.529
868.282,1.560
868.536,1.584
868.791,1.586
869.046,1.561
869.301,1.547
869.555,1.553
869.809,1.581
870.064,1.603
870.318,1.621
870.572,1.633
870.826,1.607
871.079,1.577
871.333,1.555
871.586,1.563
871.840,1.567
872.093,1.563
872.346,1.579
872.599,1.613
872.852,1.652
873.105,1.670
873.357,1.659
873.610,1.632
873.862,1.624
874.114,1.627
874.366,1.637
874.618,1.625
874.870,1.588
875.121,1.550
875.373,1.537
875.624,1.550
875.876,1.562
876.127,1.563
876.378,1.562
876.629,1.562
876.879,1.574
877.130,1.584
877.381,1.576
877.631,1.546
877.881,1.524
878.131,1.541
878.381,1.584
878.631,1.633
878.881,1.654
879.130,1.649
879.380,1.630
879.629,1.613
879.878,1.599
880.127,1.589
880.376,1.593
880.625,1.615
880.873,1.642
881.122,1.656
881.370,1.653
881.618,1.634
881.866,1.610
882.114,1.585
882.362,1.574
882.610,1.583
882.857,1.596
883.105,1.602
883.352,1.577
883.599,1.552
883.846,1.531
884.093,1.530
884.340,1.548
884.586,1.577
884.833,1.602
885.079,1.611
885.325,1.598
885.571,1.591
885.817,1.583
886.063,1.595
886.309,1.603
886.554,1.622
886.800,1.637
887.045,1.646
887.290,1.627
887.535,1.593
887.780,1.576
888.025,1.588
888.270,1.621
888.514,1.652
888.758,1.659
889.003,1.649
889.247,1.613
889.491,1.607
889.735,1.619
889.978,1.648
890.222,1.647
890.465,1.633
890.709,1.612
890.952,1.588
891.195,1.565
891.438,1.554
891.681,1.546
891.923,1.547
892.166,1.555
892.408,1.566
892.651,1.559
892.893,1.544
893.135,1.536
893.377,1.542
893.619,1.550
893.861,1.566
894.102,1.583
894.344,1.616
894.585,1.653
894.826,1.678
895.067,1.662
895.308,1.632
895.549,1.597
895.790,1.576
896.031,1.550
896.271,1.555
896.512,1.583
896.752,1.614
896.992,1.617
897.232,1.597
897.472,1.582
897.712,1.599
897.952,1.636
898.191,1.656
898.431,1.652
898.670,1.652
898.910,1.660
899.149,1.680
899.388,1.690
899.627,1.690
899.866,1.669
900.105,1.634
900.343,1.611
900.582,1.607
900.820,1.621
901.059,1.649
901.297,1.668
901.535,1.645
901.773,1.596
902.011,1.554
902.249,1.526
902.487,1.518
902.725,1.523
902.963,1.550
903.200,1.560
903.438,1.555
903.675,1.558
903.912,1.573
904.150,1.597
904.387,1.605
904.624,1.587
904.861,1.561
905.098,1.542
905.334,1.553
905.571,1.554
905.808,1.563
906.045,1.579
906.281,1.607
906.518,1.615
906.754,1.619
906.990,1.618
907.227,1.616
907.463,1.593
907.699,1.577
907.935,1.582
908.171,1.605
908.407,1.608
908.643,1.603
908.879,1.599
909.115,1.616
909.350,1.632
909.586,1.636
909.822,1.635
910.057,1.649
910.293,1.688
910.528,1.711
910.764,1.701
910.999,1.686
911.235,1.664
911.470,1.663
911.706,1.645
911.941,1.639
912.176,1.623
912.412,1.604
912.647,1.598
912.882,1.609
913.117,1.621
913.352,1.621
913.588,1.604
913.823,1.594
914.058,1.586
914.293,1.590
914.528,1.581
914.763,1.569
914.999,1.558
915.234,1.558
915.469,1.570
915.704,1.575
915.939,1.566
916.174,1.550
916.409,1.548
916.645,1.579
916.880,1.613
917.115,1.634
917.350,1.626
917.586,1.613
917.821,1.608
918.056,1.624
918.292,1.642
918.527,1.642
918.763,1.619
918.998,1.596
919.234,1.607
919.469,1.638
919.705,1.655
919.940,1.644
920.176,1.626
920.412,1.635
920.648,1.642
920.884,1.637
921.120,1.616
921.356,1.601
921.592,1.594
921.828,1.592
922.065,1.596
922.301,1.611
922.537,1.635
922.774,1.647
923.011,1.633
923.247,1.604
923.484,1.599
923.721,1.613
923.958,1.633
924.195,1.632
924.433,1.622
924.670,1.595
924.908,1.563
925.145,1.555
925.383,1.578
925.621,1.606
925.859,1.622
926.097,1.629
926.335,1.631
926.574,1.635
926.813,1.639
927.051,1.641
927.290,1.638
927.529,1.655
927.769,1.690
928.008,1.710
928.248,1.674
928.487,1.630
928.727,1.607
928.967,1.634
929.208,1.658
929.448,1.665
929.689,1.647
929.930,1.614
930.171,1.583
930.413,1.570
930.654,1.570
930.896,1.558
931.138,1.541
931.380,1.527
931.623,1.548
931.865,1.579
932.108,1.611
932.352,1.627
932.595,1.630
932.839,1.637
933.083,1.628
933.327,1.611
933.571,1.585
933.816,1.590
934.061,1.604
934.307,1.610
934.552,1.587
934.798,1.575
935.045,1.581
935.291,1.596
935.538,1.602
935.785,1.609
936.033,1.623
936.281,1.639
936.529,1.649
936.777,1.645
937.026,1.627
937.275,1.610
937.525,1.588
937.775,1.572
938.025,1.561
938.276,1.557
938.527,1.560
938.778,1.560
939.030,1.554
939.282,1.549
939.535,1.553
939.788,1.578
940.041,1.583
940.295,1.571
940.550,1.565
940.804,1.583
941.059,1.608
941.315,1.597
941.571,1.564
941.828,1.537
942.085,1.540
942.342,1.563
942.600,1.575
942.858,1.575
943.117,1.558
943.377,1.547
943.636,1.529
943.897,1.528
944.158,1.539
944.419,1.565
944.681,1.578
944.944,1.589
945.207,1.598
945.470,1.614
945.734,1.622
945.999,1.639
946.264,1.662
946.530,1.674
946.797,1.669
947.064,1.649
947.331,1.632
947.600,1.607
947.869,1.583
948.138,1.562
948.408,1.551
948.679,1.555
948.950,1.566
949.222,1.559
949.495,1.548
949.768,1.551
950.043,1.583
